ax, ay, az, gx, gy, gz, temp
-568,-672,16044,111,-113,-81,268438473
-500,-620,16292,267,-196,-123,268438473
-448,-700,16208,303,-209,-42,268438473
-404,-716,16044,309,-131,-18,268438473
-464,-632,16032,308,-175,4,268438473
-524,-616,16264,256,-257,230,268438473
-352,-660,16192,202,-207,232,268438473
-456,-648,16088,151,-153,154,268438473
-436,-392,16048,125,-21,222,268438473
-556,-524,15952,110,-7,126,268438473
-624,-552,16152,114,-99,49,268438473
-456,-488,16240,131,-100,73,268438473
-416,-676,16420,170,-3,73,268438473
-464,-452,16280,58,-166,147,268438473
-408,-332,16236,-75,-185,342,268438473
-584,-464,16200,-166,-274,499,268438473
-624,-660,15984,-196,-715,538,268438473
-400,-464,16116,-173,-612,642,268438473
-464,-636,16024,-109,-440,535,268438473
-492,-480,16080,117,-284,137,268438473
-516,-452,16148,195,-303,-128,268438473
-304,-416,16092,178,-189,-194,268438473
-420,-584,16144,67,-308,-169,268438473
-332,-388,16340,-12,-523,-47,268438473
-268,-448,16304,-77,-339,155,268438473
-444,-564,16104,-146,-220,189,268438473
-528,-396,15968,-181,-552,181,268438473
-328,-424,16252,-163,-678,250,268438473
-456,-612,16160,-198,-680,355,268438473
-348,-508,16144,-216,-887,398,268438473
-248,-568,16192,-148,-1083,405,268438473
-396,-372,16080,-72,-1366,315,268438473
-148,-376,16204,-52,-1907,543,268438473
-104,-332,16332,-153,-1952,737,268438473
60,-572,16364,-154,-1393,770,268438473
56,-348,16268,-2,-436,616,268438473
172,-492,15904,480,-349,75,268438473
220,-624,16132,673,-104,-240,268438473
-76,-564,16004,653,563,-604,268438473
-76,-188,16044,521,232,-571,268438473
-136,-544,16148,198,-207,-317,268438473
88,-412,16224,-86,-424,-73,268438473
160,-344,16316,-282,-230,246,268438473
-88,-368,15980,-224,-251,226,268438473
60,-432,16060,-70,-243,28,268438473
108,-616,16256,-140,-152,-6,268438473
-80,-664,16072,-247,-37,-15,268438473
52,-576,16068,-215,-177,-254,268438473
36,-388,16192,-196,-62,-296,268438473
-148,-408,16064,36,87,-311,268438473
-52,-404,16248,249,-39,-316,268438473
-16,-308,16352,436,-59,-367,268438473
52,-344,16484,452,-115,-198,268438473
136,-432,16348,373,-203,-116,268438473
-12,-436,16300,325,-364,-51,268438473
244,-408,16224,161,-357,108,268438473
-32,-332,16140,117,-527,218,268438473
-4,-316,16256,48,-662,235,268438473
316,-412,16344,-51,-854,430,268438473
224,-448,16292,-257,-1196,542,268438473
260,-488,16220,-469,-1373,396,268438473
292,-96,16380,-713,-1348,307,268438473
436,-144,16556,-756,-1235,424,268438473
568,-672,16180,-769,-799,618,268438473
208,-720,15948,-588,-674,429,268438473
44,-328,15948,-469,-805,206,268438473
268,-316,16004,-96,-930,32,268438473
204,-584,15908,151,-1154,-52,268438473
452,-472,16188,346,-1199,-91,268438473
500,-532,16280,444,-1168,33,268438473
608,-476,16176,346,-1290,203,268438473
776,-436,16096,255,-1048,415,268438473
608,-516,15908,247,-659,294,268438473
580,-384,16124,357,-616,43,268438473
580,-320,16280,257,-384,-192,268438473
908,-360,16284,154,-77,-197,268438473
812,-244,16336,-60,420,-180,268438473
692,-344,16236,-84,434,-306,268438473
796,-276,16336,-130,450,-210,268438473
660,-412,16260,-185,481,-56,268438473
500,-380,16144,-258,326,-132,268438473
496,-148,16232,-320,362,-233,268438473
428,-228,16292,-343,91,-19,268438473
656,-552,16132,-276,-153,45,268438473
824,-348,16440,-139,-226,79,268438473
752,-428,16184,8,5,96,268438473
720,-716,16120,-8,134,208,268438473
416,-732,16000,38,166,62,268438473
372,-796,15932,38,33,-197,268438473
724,-540,16364,-28,289,-590,268438473
712,-268,16372,-135,793,-671,268438473
500,-564,16380,-111,1016,-438,268438473
296,-276,16376,39,696,-250,268438473
212,-264,16336,149,478,-63,268438473
164,-480,15952,141,204,250,268438473
280,-572,16036,133,-95,333,268438473
356,-572,16120,166,-260,305,268438473
208,-504,16048,147,-454,132,268438473
216,-692,16268,133,-615,163,268438473
436,-236,16356,-63,-645,213,268438473
296,-172,16440,-231,-735,140,268438473
304,-204,16260,-483,-630,64,268438473
460,-308,16244,-531,-487,34,268438473
380,-476,16408,-204,-334,143,268438473
204,-456,16212,207,-243,166,268438473
76,-64,16092,718,-609,126,268438473
468,-108,16164,972,-642,162,268438473
860,-116,16224,993,-356,224,268438473
476,-528,16276,1031,-220,-162,268438473
388,-364,16216,1010,-172,-325,268438473
296,-180,16240,804,-253,-285,268438473
504,108,16252,441,-255,-297,268438473
496,196,16572,151,-184,158,268438473
148,-156,16160,45,-131,453,268438473
364,-68,15960,262,-397,426,268438473
356,216,16080,494,-407,577,268438473
532,-132,16000,681,-525,619,268438473
656,-108,16120,702,-520,314,268438473
700,-272,16108,748,-530,235,268438473
592,-136,16128,648,-416,247,268438473
516,-124,15980,493,-582,122,268438473
520,-52,16292,293,-618,59,268438473
764,-168,16228,112,-512,96,268438473
784,-140,16248,114,-318,-86,268438473
580,-32,16272,153,-209,-163,268438473
672,-100,15984,119,-110,-58,268438473
788,196,15996,-57,-214,20,268438473
732,56,16080,-482,-294,191,268438473
376,-204,16036,-440,-270,237,268438473
444,156,16092,-238,-390,202,268438473
444,196,16268,-80,-479,14,268438473
608,476,16472,-135,-521,6,268438473
404,540,16504,-222,-580,161,268438473
624,248,16308,-318,-640,207,268438473
868,28,16420,-426,-432,218,268438473
736,316,16108,-520,-174,37,268438473
552,104,16000,-557,-371,-22,268438473
644,-152,15708,-935,-398,-15,268438473
708,-380,15908,-1139,-531,-250,268438473
920,-392,16288,-918,-576,-517,268438473
956,-196,16472,-380,-345,-481,268438473
488,384,16292,287,-292,-620,268438473
588,484,16180,830,-665,-745,268438473
936,272,16468,566,-627,-647,268438473
972,-32,16392,72,-356,-396,268438473
984,-348,16456,-164,-312,-267,268438473
832,-156,16208,-285,-365,68,268438473
1036,-328,16024,-330,-396,354,268438473
964,-188,16092,-306,-348,344,268438473
1064,-288,16172,-317,-403,430,268438473
1104,-376,16100,-296,-297,496,268438473
1068,-152,16324,-239,-229,242,268438473
948,-160,16248,-183,-188,106,268438473
724,-304,16344,-218,-149,52,268438473
664,-152,16288,-318,-257,-28,268438473
800,12,16164,-371,-187,117,268438473
908,-164,16152,-310,-150,192,268438473
832,-256,16092,-106,-114,18,268438473
764,-136,16204,121,-196,-20,268438473
820,-156,16424,303,-229,164,268438473
1092,-272,16392,244,-122,34,268438473
844,-144,16292,93,-38,-114,268438473
1100,-148,16288,-186,72,-55,268438473
1036,-240,16160,-455,243,38,268438473
760,-236,16148,-599,209,50,268438473
840,-368,16136,-534,206,96,268438473
816,-416,15988,-306,168,72,268438473
836,-508,16060,-114,132,-169,268438473
736,-16,16196,62,32,-217,268438473
600,-200,16012,147,-41,-28,268438473
480,-248,16132,183,-167,18,268438473
768,-208,16296,163,-119,62,268438473
872,-336,16252,46,-38,62,268438473
828,-232,16040,-57,-16,-28,268438473
756,-236,16204,-102,-46,19,268438473
676,-348,16208,-125,-47,-10,268438473
620,-256,16232,-84,-58,-100,268438473
616,-84,16300,-108,42,-89,268438473
712,-252,16224,-34,63,-137,268438473
744,-76,16232,-91,14,-100,268438473
684,-220,16136,-111,6,-55,268438473
636,-520,16100,-273,124,-10,268438473
536,-384,16076,-254,3,0,268438473
676,-184,16232,-173,-131,52,268438473
884,-244,16324,-288,-12,164,268438473
672,-344,16140,-173,-28,-83,268438473
596,-248,16212,-219,7,-132,268438473
632,-368,16264,-377,49,-101,268438473
392,-424,16188,-456,74,-25,268438473
524,-260,16196,-360,25,108,268438473
620,-376,16244,-217,-26,113,268438473
592,-396,16176,-40,18,-30,268438473
616,-280,16196,-22,20,-20,268438473
668,-376,16156,-71,48,6,268438473
500,-256,16132,-101,25,-38,268438473
580,-404,16240,-81,45,-101,268438473
580,-352,16304,-36,110,-111,268438473
464,-436,16432,-148,154,-2,268438473
384,-468,16204,-168,92,19,268438473
428,-484,16260,-232,233,96,268438473
416,-644,16100,-297,278,44,268438473
356,-456,16136,-347,240,-27,268438473
236,-560,16124,-355,214,-40,268438473
372,-532,16256,-289,254,-134,268438473
240,-324,16236,-165,138,-156,268438473
336,-416,16216,-147,284,-72,268438473
164,-472,16104,15,177,-138,268438473
204,-384,16008,181,85,-325,268438473
244,-432,16220,215,136,-101,268438473
172,-564,16140,239,131,-82,268438473
140,-408,16148,322,-39,-168,268438473
368,-468,16268,294,-67,-19,268438473
292,-572,16208,174,-55,22,268438473
300,-408,16192,90,-78,-13,268438473
196,-348,16328,55,-66,-36,268438473
276,-332,16080,46,-62,-72,268438473
196,-528,16024,-40,-107,-39,268438473
112,-432,16188,-7,-112,-137,268438473
96,-348,16252,25,-42,-68,268438473
268,-336,16164,5,-48,-79,268438473
180,-312,16036,26,-179,-90,268438473
188,-432,16148,13,-201,-70,268438473
144,-456,16020,-51,-126,43,268438473
-128,-416,16160,118,-215,-66,268438473
188,-344,16256,207,-244,-82,268438473
320,-296,16292,202,-92,-123,268438473
64,-356,16056,314,-185,-155,268438473
252,-312,16284,207,-225,-54,268438473
172,-280,16292,132,-202,37,268438473
336,-368,16120,144,-179,-111,268438473
176,-508,16232,34,-46,-151,268438473
52,-360,16180,8,47,-148,268438473
188,-300,16144,-8,7,-112,268438473
72,-440,16224,0,14,-125,268438473
-64,-280,16228,13,-102,-105,268438473
88,-236,16264,-29,-50,-43,268438473
20,-268,16016,-11,-109,9,268438473
112,-408,16036,15,-26,-49,268438473
0,-272,16120,-1,-189,-81,268438473
68,-276,16288,-5,-148,-122,268438473
104,-244,16416,-59,-75,-47,268438473
40,-272,16196,77,-95,-105,268438473
16,-384,16176,209,-70,-99,268438473
248,-288,16320,223,-121,-120,268438473
144,-388,16304,166,-181,-163,268438473
112,-348,16152,-13,-118,-119,268438473
-52,-260,16212,-97,-171,13,268438473
256,-248,16352,-113,-194,-46,268438473
328,-292,16408,-126,-160,13,268438473
216,-296,16228,-93,-136,-44,268438473
156,-296,16232,-114,-139,-106,268438473
0,-376,16016,-180,-119,-105,268438473
24,-312,16156,-153,-47,-18,268438473
148,-320,16292,-59,-71,-40,268438473
-16,-312,16188,-75,-97,-51,268438473
44,-428,16236,-199,-145,9,268438473
136,-340,16204,-224,-79,70,268438473
124,-268,16216,-32,-134,17,268438473
24,-208,16272,60,-173,-1,268438473
-48,-228,15948,89,-115,-48,268438473
116,-216,16236,20,-181,-106,268438473
156,-200,16352,-37,-208,-64,268438473
36,-396,16244,-50,-67,-40,268438473
-88,-212,16172,35,-161,-58,268438473
100,-288,16184,-10,-127,20,268438473
-40,-436,16068,-16,-179,-47,268438473
40,-300,16144,-27,-201,-2,268438473
36,-316,16180,20,-124,-53,268438473
-88,-244,16112,77,-85,-86,268438473
-120,-208,16176,109,-193,-124,268438473
32,-160,16416,-11,-208,44,268438473
140,-316,16160,-80,-128,58,268438473
68,-416,16172,14,-62,-52,268438473
-36,-200,16072,30,-150,-132,268438473
56,-180,16064,83,-218,-159,268438473
68,-356,16296,-68,-156,-86,268438473
-32,-332,16184,-184,-43,-80,268438473
-140,-204,16108,-195,-114,-25,268438473
-76,-320,16172,-267,-159,19,268438473
80,-356,16264,-246,-160,-33,268438473
192,-336,16304,-189,-73,40,268438473
80,-328,16272,-209,-49,14,268438473
-56,-192,16060,-106,-182,-97,268438473
-80,-400,16180,-69,-111,-118,268438473
-76,-348,16124,-49,-108,-78,268438473
-52,-280,16092,44,-192,-24,268438473
36,-292,16056,184,-314,-65,268438473
88,-260,16128,100,-217,-17,268438473
12,-432,16060,99,-187,-87,268438473
-40,-572,16148,-14,-293,-26,268438473
60,-352,16408,-120,-235,60,268438473
-28,-444,16212,-109,-241,125,268438473
148,-328,16236,-113,-241,1,268438473
20,-348,16208,-98,-121,-4,268438473
-140,-356,15980,-127,-128,14,268438473
-12,-244,16068,-70,-235,-97,268438473
16,-224,16140,-70,-238,-177,268438473
32,-372,16224,-205,-229,-83,268438473
56,-288,16308,-170,-134,42,268438473
-56,-272,16176,-10,-172,-38,268438473
116,-396,16020,8,-150,61,268438473
-204,-260,16240,142,-201,6,268438473
-32,-156,16256,208,-185,-139,268438473
44,-456,16060,158,-143,-43,268438473
-300,-424,16176,171,-247,-30,268438473
-56,-368,16324,28,-357,18,268438473
184,-320,16256,-167,-227,74,268438473
200,-264,16128,-129,-122,76,268438473
32,-324,16188,-41,-199,-3,268438473
116,-500,16180,-15,-179,-43,268438473
168,-312,16252,-77,-136,-81,268438473
-56,-244,16128,-115,-170,-3,268438473
-136,-168,16116,-59,-212,27,268438473
52,-256,16188,-33,-242,130,268438473
-68,-344,16180,-16,-174,82,268438473
32,-380,16240,11,-243,-35,268438473
16,-348,16192,-69,-148,-41,268438473
-108,-284,16372,-91,-189,26,268438473
72,-304,16248,44,-157,9,268438473
-44,-380,16208,104,-141,-53,268438473
-80,-224,16236,66,-173,-125,268438473
-24,-312,16232,-35,-158,-86,268438473
48,-392,16224,-56,-171,20,268438473
68,-240,16176,-23,-118,67,268438473
-120,-332,16100,145,-195,28,268438473
96,-368,16264,146,-167,-8,268438473
12,-260,16180,90,-192,-1,268438473
72,-392,16188,-64,-162,-48,268438473
16,-280,16112,-150,-224,-80,268438473
100,-220,16456,-189,-196,13,268438473
36,-240,16244,-169,-210,-101,268438473
124,-144,16456,-203,-98,2,268438473
-188,-220,16132,-163,-67,82,268438473
-116,-336,16080,17,-171,-33,268438473
-132,-368,16088,63,-177,-36,268438473
-20,-116,16196,140,-234,-69,268438473
-100,-288,16036,161,-236,-67,268438473
40,-192,16184,142,-241,-13,268438473
12,-348,16208,79,-238,11,268438473
96,-220,16088,101,-271,-70,268438473
48,-240,16228,40,-195,-102,268438473
-36,-212,16152,3,-135,-109,268438473
-12,-396,16072,-43,-279,-88,268438473
104,-268,16232,17,-230,-162,268438473
52,-272,16288,76,-226,-96,268438473
8,-280,16116,-11,-251,11,268438473
48,-244,16136,-52,-231,21,268438473
184,-164,16204,-105,-224,-31,268438473
264,-288,16200,-108,-143,15,268438473
20,-200,16060,-110,-137,-107,268438473
84,-112,16264,-15,-201,-132,268438473
-84,-248,16008,67,-160,-130,268438473
80,-292,16120,80,-207,-82,268438473
72,-220,16108,16,-223,-14,268438473
4,-292,16280,-10,-207,-3,268438473
52,-212,16324,-132,-238,51,268438473
140,-288,16288,-120,-219,42,268438473
-20,-308,16300,65,-174,-62,268438473
-28,-216,16288,239,-216,-148,268438473
8,-144,16204,268,-303,-20,268438473
140,-224,16064,132,-236,-6,268438473
32,-188,16168,30,-172,-43,268438473
32,-200,16208,16,-158,-132,268438473
-104,-232,16120,-100,-268,-114,268438473
200,-204,16328,-101,-294,4,268438473
164,-280,16272,-61,-183,-40,268438473
104,-212,16264,-42,-206,-40,268438473
-12,-276,16180,-53,-182,25,268438473
-64,-200,16212,8,-216,-38,268438473
8,-140,16192,-62,-156,-3,268438473
24,-220,16080,-29,-143,78,268438473
12,-232,16052,51,-118,-29,268438473
-12,-312,16204,67,-174,-79,268438473
8,-120,16368,45,-158,-57,268438473
76,-192,16212,10,-202,-54,268438473
128,-288,16204,-18,-127,-57,268438473
52,-240,16352,26,-139,-108,268438473
120,-180,16276,33,-138,23,268438473
-140,-96,16180,157,-177,-100,268438473
-28,-196,16172,75,-190,-66,268438473
-40,-180,16152,-28,-129,-19,268438473
40,-192,16184,-104,-158,59,268438473
12,-300,15996,-36,-273,-77,268438473
76,-120,16352,52,-284,-61,268438473
232,-188,16316,-12,-202,80,268438473
64,-212,16300,28,-152,-18,268438473
-28,-168,16288,97,-297,-68,268438473
172,-212,16392,106,-223,126,268438473
-52,-260,16200,30,-255,34,268438473
-168,-348,16484,-271,-560,-224,268438473
160,-436,16744,-495,-572,49,268438473
56,-324,16756,-180,-677,-205,268438473
112,8,17304,460,-945,-767,268438473
624,512,17616,1093,-769,-1040,268438473
588,624,17460,1418,-430,-916,268438473
-248,348,17060,1488,-123,-711,268438473
-584,300,16532,1606,-621,-703,268438473
-320,208,16368,1838,-1228,-891,268438473
196,300,16728,2191,-1187,-906,268438473
464,40,16576,2735,-1206,-621,268438473
564,240,16652,3183,-881,-535,268438473
592,256,16436,3382,-614,-237,268438473
1������ �196,632,16596,3050,-261,-210,268438473
780,636,16240,2484,252,-37,268438473
168,220,15784,1743,463,-169,268438473
-68,300,15372,1064,234,-548,268438473
584,516,15292,422,121,-324,268438473
636,620,14888,-130,97,146,268438473
1060,1016,14388,-221,435,651,268438473
728,948,13528,214,342,582,268438473
620,1204,13344,902,-170,-58,268438473
580,1444,13528,1145,-280,-191,268438473
196,1704,13868,1257,-568,8,268438473
148,1628,14184,1222,-1179,94,268438473
352,2048,14900,1013,-1330,242,268438473
188,2144,15212,532,-1525,555,268438473
464,2028,15680,-345,-1487,467,268438473
512,1664,16076,-2026,-1326,254,268438473
824,1832,16532,-2788,-1336,133,268438473
1096,1584,17260,-3696,-582,-202,268438473
948,1560,17396,-3919,-266,-556,268438473
856,1324,16992,-3564,-22,-666,268438473
660,1028,17024,-2569,-27,-733,268438473
416,948,16752,-1453,-94,-1152,268438473
1132,632,16960,-752,86,-1073,268438473
1052,632,17056,-326,588,-581,268438473
692,600,16060,-43,615,-493,268438473
424,444,16124,489,117,-680,268438473
716,408,16244,654,-546,-664,268438473
836,616,16532,855,-663,-616,268438473
524,648,16836,1200,-645,-477,268438473
376,108,16748,1527,-957,-532,268438473
844,272,16940,2071,-672,-299,268438473
680,388,16824,2337,-"31,312,268438473
592,888,16856,1916,346,985,268438473
316,528,16160,1500,521,1269,268438473
376,388,15928,1129,25,750,268438473
928,636,16388,216,-274,424,268438473
1324,772,16584,-519,-120,32,268438473
1312,396,16388,-779,105,-717,268438473
1584,200,16764,-1258,394,-1078,268438473
996,596,16460,-1641,839,-1071,268438473
492,668,16224,-1458,688,-923,268438473
536,576,16032,-1138,271,-634,268438473
612,660,16052,-1005,150,-446,268438473
944,656,16024,-999,-251,-151,268438473
908,468,16140,-984,-485,-33,268438473
1164,364,16116,-982,-468,230,268438473
792,552,16176,-914,-391,270,268438473
1044,420,16208,-702,-497,212,268438473
1072,676,16428,-603,-211,109,268438473
912,388,15948,-472,-162,-89,268438473
876,608,16264,-221,-281,-271,268438473
832,640,16364,-261,-244,-338,268438473
1192,592,16124,-309,-612,-325,268438473
964,380,16212,-470,-783,-397,268438473
760,280,16324,-471,-676,-423,268438473
1076,312,16912,-927,-573,-275,268438473
1188,512,16664,-997,29,-52,268438473
808,444,16152,-845,134,347,268438473
996,256,15944,-212,-45,413,268438473
1180,-184,15752,746,146,412,268438473
172,616,15752,1459,-195,644,268438473
112,684,16108,2222,-318,1158,268438473
748,696,16036,2284,-226,1381,268438473
928,708,16264,1676,45,1338,268438473
356,1060,16364,941,363,1338,268438473
56,1220,15996,503,168,1277,268438473
-476,788,15556,201,139,873,268438473
-1056,548,15956,308,-37,851,268438473
-1124,1632,16280,595,84,878,268438473
-1328,1640,16504,783,-45,1163,268438473
-1004,1676,16520,907,-172,1438,268438473
-392,1584,16636,837,-110,1301,268438473
-188,1488,16352,465,75,1118,268438473
-336,1516,16380,199,164,981,268438473
-444,1432,16556,-181,9,713,268438473
152,1348,16332,-383,-24,327,268438473
8,1248,15896,-686,428,228,268438473
-420,1388,15880,-449,304,76,268438473
-524,1432,15832,58,-19,-135,268438473
-376,1484,15840,514,-385,-106,268438473
-244,1684,16104,644,-243,209,268438473
224,1108,15804,919,-576,1,268438473
140,1584,16080,742,-511,115,268438473
304,1428,16152,650,-576,193,268438473
544,1280,16164,722,-492,-100,268438473
200,1292,16212,576,-443,-23,268438473
196,1316,16076,541,-493,-271,268438473
400,1276,16436,484,-451,-479,268438473
296,1440,16160,375,-390,-479,268438473
12,1456,16252,239,-599,-262,268438473
68,1500,16212,168,-753,-64,268438473
152,1608,16188,257,-744,-235,268438473
348,1564,16204,190,-619,-125,268438473
172,1524,16144,277,-789,-217,268438473
356,1552,16160,345,-871,-388,268438473
256,1604,15960,484,-677,-692,268438473
-44,1424,15856,548,-859,-868,268438473
332,1680,16000,386,-963,-1087,268438473
1028,1864,16640,-360,-1016,-987,268438473
760,1468,16360,-749,-542,-1268,268438473
168,1584,15844,-547,-581,-2041,268438473
164,1408,15872,-337,-853,-2245,268438473
332,1124,16004,-388,-1109,-2139,268438473
700,1712,16600,-929,-1274,-1762,268438473
548,1608,16308,-1145,-697,-1931,268438473
800,1944,16188,-1247,-666,-2187,268438473
700,1348,16116,-1138,-915,-2236,268438473
700,1220,16240,-1076,-1240,-2146,268438473
1236,992,16096,-1242,-1128,-1431,268438473
1236,752,16084,-1196,-915,-977,268438473
704,916,15520,-557,-994,-1295,268438473
1228,892,15788,79,-1752,-1389,268438473
1800,804,16340,297,-1520,-1054,268438473
2296,820,16532,137,-1035,-544,268438473
2012,796,15988,270,-697,-791,268438473
1604,824,15832,755,-935,-1263,268438473
1860,668,16124,772,-1000,-1494,268438473
1572,864,16116,583,-868,-1315,268438473
1288,1108,16060,728,-1171,-1615,268438473
1704,976,16200,480,-1120,-1591,268438473
1508,1092,16364,-211,-1014,-1057,268438473
1664,1248,15992,-643,-1190,-938,268438473
1852,1500,16044,-784,-1336,-619,268438473
1800,1204,15800,-427,-1690,-593,268438473
2356,1024,16212,-211,-1621,-852,268438473
2584,1132,16340,-195,-1196,-772,268438473
2112,932,15512,364,-1321,-1473,268438473
3016,620,15984,1230,-1726,-2090,268438473
3204,1100,16552,1285,-1744,-1769,268438473
3384,1644,16804,898,-1480,-1005,268438473
3504,1616,16632,821,-947,-554,268438473
3464,1620,16524,738,-678,-204,268438473
3080,1404,16404,768,-494,13,268438473
3000,1272,15964,744,-498,125,268438473
3028,1276,16160,841,-266,148,268438473
2940,1288,15916,515,-399,495,268438473
2716,1288,15708,228,-581,872,268438473
2824,1372,15788,58,-672,922,268438473
2864,1104,15652,-154,-294,540,268438473
2800,1380,15728,-274,-169,199,268438473
3052,1164,15836,-534,-231,65,268438473
2656,948,15660,-734,-213,356,268438473
2548,1172,15856,-824,-472,418,268438473
2664,1336,16072,-858,-740,691,268438473
2668,1336,16056,-690,-529,837,268438473
2888,1176,16024,-369,-511,768,268438473
3296,992,16036,-191,-453,840,268438473
3520,1048,16008,-235,-494,940,268438473
3512,1340,16004,-56,-109,851,268438473
3232,1124,15588,119,-7,700,268438473
3264,1248,15988,-20,243,582,268438473
2956,1736,16324,-558,528,649,268438473
2712,1408,16144,-1264,566,742,268438473
2444,1416,16300,-1801,299,754,268438473
2436,1492,16248,-2166,340,868,268438473
2460,1668,16516,-2220,521,1177,268438473
1996,1160,15988,-1888,521,1349,268438473
1968,976,16136,-1396,192,978,268438473
2092,884,15812,-846,323,830,268438473
2476,844,15736,-443,155,998,268438473
2156,684,15424,-191,129,1238,268438473
2264,1028,15588,187,-43,1122,268438473
2532,636,15488,339,-387,1145,268438473
3224,-64,15388,283,-318,1003,268438473
3196,-312,15752,643,-29,718,268438473
3376,-392,15736,1421,465,883,268438473
2536,108,15664,2069,900,1329,268438473
2052,780,15916,2796,849,1390,268438473
1812,752,15620,3003,870,1324,268438473
1396,1304,15416,2828,664,1310,268438473
1604,1984,15764,2075,267,1993,268438473
1120,2316,15988,1375,132,2503,268438473
636,2452,15572,952,-461,2612,268438473
776,2772,15792,648,-449,2049,268438473
904,2128,15844,324,-828,1293,268438473
1228,2068,15728,71,-1067,558,268438473
1192,1696,15768,308,-1241,42,268438473
892,1420,15328,856,-1668,-378,268438473
1264,1964,15484,1450,-1946,-593,268438473
1448,2204,15608,1598,-1920,-692,268438473
1408,2188,15600,1628,-2139,-1035,268438473
1716,2084,15868,1222,-2315,-1165,268438473
2420,1728,15936,650,-2201,-980,268438473
2692,1740,16244,183,-1660,-722,268438473
2488,2036,16092,105,-1331,-766,268438473
2192,1980,15728,821,-1409,-1041,268438473
2664,1812,16032,1399,-1426,-1599,268438473
2644,2240,15980,1465,-1661,-1380,268438473
2872,2884,16284,1383,-2044,-1132,268438473
3560,3376,16856,614,-1830,-408,268438473
3672,3112,16708,-17,-1629,-138,268438473
4096,2952,16824,-723,-1315,-258,268438473
4052,2584,16928,-1113,-1233,-607,268438473
5220,2596,17616,-1936,-416,-665,268438473
5672,2452,17984,-2895,921,-300,268438473
5188,1972,17860,-3248,2109,-194,268438473
5292,1824,17948,-3406,2900,-26,268438473
4000,1728,17572,-3183,3415,-62,268438473
3348,972,16964,-2787,3734,6,268438473
2732,496,16444,-2278,3145,242,268438473
2144,320,16264,-1547,2367,524,268438473
1948,464,16264,-1170,2084,584,268438473
1652,1012,16392,-1086,1803,1043,268438473
1316,892,16228,-932,1438,1155,268438473
1312,1064,16368,-690,1082,1263,268438473
1200,736,16124,-582,576,1316,268438473
1156,1000,16056,-599,107,1039,268438473
876,1276,16096,-676,-204,860,268438473
964,1308,16208,-860,-401,378,268438473
1388,1324,16208,-1077,1,398,268438473
972,780,16024,-1415,-63,603,268438473
1152,532,15600,-1174,-248,241,268438473
1340,828,15372,-909,-288,-278,268438473
1852,332,15592,-602,-490,-696,268438473
2084,524,15884,-488,-355,-869,268438473
1676,960,15868,-329,-135,-952,268438473
640,-2344,11416,1670,-2558,-985,268438473
1772,-2332,13708,4533,-7956,-739,268438473
2216,1920,13332,6717,-3952,-2485,268438473
4372,3028,14884,6246,1709,-807,268438473
3988,1704,14636,6493,-746,939,268438473
3444,2532,15232,6719,-280,418,268438473
3888,3120,16376,5750,231,918,268438473
2916,2960,16280,4609,607,895,268438473
2812,2664,15744,2916,323,580,268438473
2504,2800,15828,887,152,683,268438473
2496,2960,15752,-582,227,501,268438473
2316,3132,16136,-1269,-71,237,268438473
2356,2916,15916,-1781,-264,91,268438473
2660,3348,16068,-1893,-276,166,268438473
2576,3172,15848,-1772,-154,116,268438473
2096,2788,15280,-1470,-30,-312,268438473
2112,2644,14800,-1287,-498,-664,268438473
2392,2588,15100,-1262,-921,-636,268438473
2376,2220,14948,-1404,-959,-807,268438473
2796,2512,15392,-1545,-499,-804,268438473
2576,2204,15304,-1939,-329,-340,268438473
2092,2048,15000,-2225,-642,-137,268438473
2284,1852,15248,-1984,-1053,-132,268438473
2680,2032,15720,-1609,-914,-354,268438473
2608,1740,15784,-1313,-725,-370,268438473
2392,1620,15568,-934,-1083,-572,268438473
2924,1756,16332,-420,-1408,-775,268438473
3196,2172,16888,-682,-804,-836,268438473
3052,1992,16568,-1042,-463,-913,268438473
3076,1556,16392,-1255,-619,-744,268438473
3412,1452,16816,-1154,-530,-711,268438473
3388,1456,16984,-599,-52,-917,268438473
3028,1020,16592,235,-190,-1276,268438473
3164,1672,17116,821,-362,-1280,268438473
3568,1984,17088,937,-260,-982,268438473
3560,1808,16756,524,-105,-357,268438473
3708,2084,16812,227,-35,-166,268438473
3612,2300,16432,273,262,-286,268438473
3636,1952,16188,438,342,-291,268438473
3148,1816,15956,920,264,-193,268438473
3168,2416,16200,1425,215,-489,268438473
3084,2728,16328,1637,214,-453,268438473
2920,2076,16004,1422,166,-257,268438473
2896,2208,16036,1245,143,-169,268438473
2456,2608,15940,1202,-73,-57,268438473
2260,2436,16072,1333,-623,379,268438473
2564,2532,16292,1900,-973,528,268438473
2904,2708,16568,2305,-1227,436,268438473
2912,2764,16676,2801,-870,323,268438473
2788,2576,16492,3345,-757,-118,268438473
2664,2656,16628,3647,-312,-401,268438473
2632,2996,16352,3984,-145,-244,268438473
2656,2840,16324,3647,-361,53,268438473
2352,3264,16140,3554,-297,256,268438473
2468,2968,15804,3422,-80,545,268438473
2576,3752,15516,3547,-78,569,268438473
2456,3716,15628,3558,-215,467,268438473
2532,4096,15600,3844,-415,500,268438473
3432,6400,15012,4963,136,625,268438473
3268,6172,15064,4824,236,1150,268438473
3104,5956,14560,4851,551,900,268438473
2820,6024,14584,4899,632,-15,268438473
2932,6624,14488,4539,365,47,268438473
3324,6920,14660,4397,1588,228,268438473
2176,7604,13876,2242,2018,280,268438473
2180,7628,14336,1838,1890,360,268438473
160,8152,14108,1366,2046,629,268438473
1792,7820,13712,51,1949,-426,268438473
1504,8000,12828,-1349,970,137,268438473
1284,7560,12848,-2096,534,368,268438473
1184,7552,12944,-2711,367,279,268438473
1288,7136,12912,-3229,-135,107,268438473
1588,7000,13068,-3665,-749,113,268438473
1552,6956,12968,-3577,-947,-278,268438473
1548,6936,12992,-3454,-1192,-303,268438473
1572,6248,13436,-3734,-1717,-95,268438473
1700,6100,13628,-4146,-2084,217,268438473
1940,6284,14044,-4129,-1829,254,268438473
2560,5620,15224,-4192,-2007,-110,268438473
3092,5312,15548,-4834,-636,-14,268438473
2948,4760,15352,-5420,-575,-68,268438473
2260,4252,14636,-5478,-2732,114,268438473
3176,4364,16192,-4385,-2028,202,268438473
2916,3808,15984,-4011,-1366,197,268438473
3152,3880,15880,-3053,-1129,31,268438473
3304,3756,16032,-2983,-596,-84,268438473
3276,3560,15732,-2723,-366,-52,268438473
3280,3344,15676,-2706,-225,-227,268438473
3100,2984,15908,-2806,-139,-354,268438473
2884,2744,15616,-3039,-386,-89,268438473
2644,2760,15808,-2988,-583,-12,268438473
3016,2232,15724,-2908,-722,34,268438473
3544,1772,15808,-2903,-710,-219,268438473
2896,2568,15808,-2807,-396,-394,268438473
3128,2196,15632,-3009,-733,-284,268438473
3240,1620,15848,-3340,-913,-124,268438473
3056,1856,15864,-3380,-776,-25,268438473
3324,1584,15776,-3409,-1024,454,268438473
3284,956,15528,-3659,-696,447,268438473
3356,1056,15528,-3833,-644,259,268438473
3252,820,15572,-4110,-974,526,268438473
3556,264,15628,-4886,-1241,742,268438473
3796,44,15796,-5541,-1231,769,268438473
3516,-68,15696,-5736,-1266,742,268438473
3672,-160,16176,-5440,-1167,580,268438473
3628,-744,16112,-5280,-1278,951,268438473
3856,-1244,15872,-4772,-1566,1095,268438473
4104,-1500,16324,-3809,-1533,563,268438473
4012,-1352,16396,-2867,-986,-42,268438473
4284,-1444,16700,-2190,-725,-269,268438473
4252,-1580,16752,-1564,-647,-188,268438473
4060,-1520,16836,-902,-619,-145,268438473
4040,-1304,16820,-63,-626,115,268438473
4156,-1436,16620,529,-515,377,268438473
4288,-1540,16548,768,-366,557,268438473
4028,-1348,16060,961,118,469,268438473
4088,-1336,15992,813,108,227,268438473
3968,-1168,15772,745,81,158,268438473
4032,-1244,15908,586,-27,169,268438473
4040,-1132,16212,608,122,255,268438473
4152,-968,16140,830,247,181,268438473
4244,-1280,16276,1092,503,145,268438473
4036,-1128,16152,1198,663,2,268438473
3856,-1044,16276,1334,791,-168,268438473
3720,-1004,16164,1405,675,27,268438473
3512,-1108,16040,1328,513,251,268438473
3596,-772,16216,1220,427,332,268438473
3788,-772,16588,1236,307,549,268438473
4256,-696,17128,1328,453,798,268438473
4100,-432,17088,1517,792,926,268438473
3628,-476,16976,1993,770,716,268438473
3720,-568,16744,2364,724,731,268438473
3868,-740,17004,2812,1495,562,268438473
3268,-608,16784,3557,1602,197,268438473
3120,-496,16424,3620,1926,175,268438473
2468,56,16292,3782,2147,547,268438473
2528,220,16144,4165,1356,894,268438473
2772,512,16256,4362,1385,474,268438473
2576,596,15760,4966,984,-5,268438473
2652,1388,16380,5623,1209,-294,268438473
2692,1752,16244,6673,1579,-295,268438473
2472,1824,15672,6660,1546,-421,268438473
2724,1616,15396,6230,736,-48,268438473
2828,2092,15600,6109,585,100,268438473
2496,2656,15416,6061,840,186,268438473
2240,2556,15444,5857,708,140,268438473
1836,3068,15800,5350,3592,-1059,268438473
1536,2988,14792,5498,5805,-2989,268438473
1932,3604,14812,6264,5833,-3696,268438473
2344,4332,15612,5899,3319,-2565,268438473
2748,4776,16520,4311,1293,-422,268438473
2280,4952,16292,2604,800,1375,268438473
1448,4908,15136,2273,1513,897,268438473
1500,5044,15380,2950,2088,292,268438473
1044,5164,15244,3798,3028,-348,268438473
908,5292,15068,3872,3561,-833,268438473
844,5916,14952,4124,4054,-785,268438473
328,5536,14788,3905,3350,-176,268438473
80,5488,14596,3385,2275,304,268438473
44,5704,14660,3098,2068,124,268438473
92,5936,14424,2865,2024,46,268438473
-272,6248,14376,2300,1942,-20,268438473
-136,6332,14276,1511,1538,204,268438473
-348,6320,13876,756,1283,72,268438473
-756,6680,13528,-87,1073,-243,268438473
-880,6524,13228,-971,584,-188,268438473
-932,6008,13008,-2013,10,-29,268438473
-524,5848,13184,-3440,-11,162,268438473
-116,5732,13564,-4477,444,137,268438473
480,5748,14296,-4995,1169,-17,268438473
484,5900,14876,-5054,2207,-431,268438473
36,5456,15128,-4809,3201,-792,268438473
-336,4704,15284,-4465,4917,-1542,268438473
-740,4644,15452,-3669,6257,-3083,268438473
-884,5032,15496,-2971,5920,-3003,268438473
-1236,4244,15880,-2338,5745,-3077,268438473
-1644,3848,15772,-1773,4826,-2640,268438473
-2420,4216,15604,-1196,4941,-2532,268438473
-3128,4152,15372,-559,4895,-2532,268438473
-3688,4132,15268,-625,4712,-2474,268438473
-3648,4296,15748,-816,4471,-2228,268438473
-4012,3836,15540,-1113,4795,-2193,268438473
-4780,4092,15104,-1008,5488,-2585,268438473
-5112,3844,14616,-738,6108,-2726,268438473
-5404,3556,14392,-71,6730,-3133,268438473
-5596,3944,14548,1359,7984,-4010,268438473
-6148,4276,14164,1962,7438,-3141,268438473
-6792,4100,13364,1722,6139,-1612,268438473
-6568,3888,13728,2092,6314,-1909,268438473
-6944,4184,13720,2861,6947,-2229,268438473
-7688,4232,13268,2430,5199,-1389,268438473
-8012,4196,13044,1228,2476,57,268438473
-7952,4304,12944,141,455,1171,268438473
-7636,4176,12916,-236,-558,1245,268438473
-7536,4192,12880,-375,-1616,1282,268438473
-7364,4244,13212,-597,-2108,1322,268438473
-7020,4020,13168,-859,-2164,1174,268438473
-6512,3688,13108,-736,-1392,830,268438473
-6552,4072,13428,-620,-1132,342,268438473
-6620,4300,13396,-895,-1581,389,268438473
-6576,4112,13352,-1059,-1994,611,268438473
-6480,4328,13384,-1593,-2761,819,268438473
-6476,4164,13420,-2121,-3396,961,268438473
-6804,3960,13308,-2732,-4636,1087,268438473
-6892,3704,13308,-3129,-5661,934,268438473
-6672,4260,13656,-3289,-6944,985,268438473
-6068,3920,14272,-3390,-8903,1419,268438473
-5556,3236,14632,-3699,-9362,1222,268438473
-4912,2792,15124,-4223,-9918,932,268438473
-4528,2268,15140,-4966,-10132,744,268438473
-3820,2692,15520,-5493,-9653,525,268438473
-3308,2740,15796,-5748,-9832,713,268438473
-2536,2304,15996,-5696,-9315,505,268438473
-2064,1936,15972,-4799,-8075,84,268438473
-1632,1808,16396,-3580,-7200,-467,268438473
-1372,1532,15912,-2038,-6408,-926,268438473
-900,976,16008,-1141,-6265,-1136,268438473
-1048,1404,15844,-582,-7054,-931,268438473
-300,1472,16396,-617,-7478,-712,268438473
220,1756,16684,-948,-7168,-397,268438473
588,1860,16660,-1901,-7349,363,268438473
872,1432,16416,-1702,-7659,471,268438473
1992,1108,16632,-1749,-7329,226,268438473
1912,1128,16620,-2105,-7049,479,268438473
1936,1012,16116,-2038,-6443,223,268438473
1912,1172,16000,-1402,-6117,-114,268438473
2144,784,15660,-392,-6214,-751,268438473
2704,968,15988,608,-6465,-1277,268438473
3412,1356,15988,1365,-7384,-1195,268438473
4708,1076,16484,1881,-8061,-1119,268438473
4944,1092,16500,1717,-8159,-1387,268438473
5184,1320,16360,1306,-8655,-928,268438473
5700,1440,15656,1474,-7712,-778,268438473
5920,1080,15404,1751,-8317,-654,268438473
6416,1368,15364,1745,-8082,-618,268438473
6780,892,15312,1761,-7698,-273,268438473
7164,1736,15416,1545,-7208,513,268438473
7344,1464,14924,1445,-6863,1149,268438473
7300,1432,14648,1850,-6975,1137,268438473
7888,2288,15172,1784,-5816,482,268438473
8444,1792,14576,1809,-4532,-371,268438473
8644,1384,14660,2005,-2993,-984,268438473
8360,1232,13828,2157,-2042,-903,268438473
8364,1672,14024,2340,-2331,-801,268438473
8212,2280,14180,2660,-1997,-352,268438473
8820,1820,14136,2379,-1526,-421,268438473
8880,1780,13880,2173,-772,-666,268438473
8784,2348,13884,1921,-461,-791,268438473
9084,2664,14208,1707,-199,-491,268438473
9456,2976,14460,1505,751,-177,268438473
9264,2840,14232,908,1418,-134,268438473
8852,3252,14592,701,1611,-246,268438473
8704,3224,14632,579,1993,-255,268438473
8260,2800,14272,365,2330,-320,268438473
7688,2968,14204,591,3022,-1076,268438473
7780,3040,14176,640,4677,-2064,268438473
7704,3076,14036,720,6163,-2243,268438473
7520,3580,14488,1022,6367,-1659,268438473
7184,4180,14496,493,7217,-1077,268438473
6652,3584,13824,68,8619,-2005,268438473
6960,3824,14496,493,9416,-2445,268438473
5760,3360,15016,-309,12492,-2614,268438473
4500,3224,14668,-683,13157,-2025,268438473
3932,3640,14188,-1023,10334,-256,268438473
3040,3492,14868,-2020,9908,966,268438473
2620,3692,15136,-2851,8902,1280,268438473
2224,3368,14764,-3877,7147,1715,268438473
2176,2952,14840,-5243,5577,2062,268438473
1728,2628,14684,-6804,4244,2520,268438473
1104,1624,14472,-9235,3293,1898,268438473
1176,1308,14800,-9194,2421,1822,268438473
1356,1396,15368,-8292,1064,1345,268438473
1648,908,15648,-7114,499,564,268438473
1556,336,16124,-6180,338,535,268438473
1252,-108,15804,-5330,-132,812,268438473
1604,-800,15740,-4648,-181,913,268438473
1496,-1116,16200,-3755,114,1012,268438473
1092,-892,16432,-2649,-34,1536,268438473
864,-1292,15924,-2277,-61,1748,268438473
1012,-1148,16344,-2503,-365,1846,268438473
748,-1324,15992,-2988,-477,2445,268438473
888,-1660,15908,-4524,284,2351,268438473
808,-1620,16216,-4835,203,2391,268438473
512,-2192,15692,-5207,189,2386,268438473
596,-2384,16160,-5490,-19,2139,268438473
412,-2484,16336,-4708,-644,1998,268438473
508,-2768,16256,-3858,-803,1606,268438473
964,-3052,16548,-3959,-295,1203,268438473
904,-3148,16548,-3899,25,1033,268438473
880,-3356,16092,-3563,-280,853,268438473
740,-3532,15908,-3864,-557,686,268438473
868,-3796,15864,-3995,-769,980,268438473
1200,-4104,15700,-4013,-103,756,268438473
1128,-4176,16136,-3853,734,489,268438473
452,-4448,14880,-4204,467,495,268438473
408,-4532,14820,-3957,-7,396,268438473
1096,-4732,15616,-3079,-307,468,268438473
860,-4748,14940,-3488,729,664,268438473
588,-4816,14668,-3293,-180,845,268438473
548,-5240,14480,-2162,-456,575,268438473
772,-5140,14556,-2165,-713,806,268438473
852,-5196,14304,-2556,-751,1184,268438473
1260,-5524,14764,-1706,-521,922,268438473
1512,-5864,14988,-2242,1860,468,268438473
1060,-5604,15668,-2609,3184,644,268438473
428,-5852,15348,-2952,2673,765,268438473
488,-6180,14956,-2832,2442,570,268438473
296,-6720,14584,-3002,2638,212,268438473
-20,-6472,14980,-2817,2448,-80,268438473
-16,-6816,15264,-2845,1656,237,268438473
-56,-7028,15284,-2946,1420,176,268438473
144,-7284,15348,-3085,69,310,268438473
40,-7424,15244,-2791,-113,237,268438473
20,-7012,14924,-3126,735,172,268438473
-184,-7520,14980,-3469,1749,47,268438473
-132,-7288,14200,-4304,1469,170,268438473
-748,-7340,14068,-4851,718,423,268438473
-344,-7968,14364,-4551,951,43,268438473
-256,-8408,13760,-4681,512,-280,268438473
-512,-8268,13764,-5057,58,-110,268438473
-360,-8596,13488,-5440,52,-60,268438473
-288,-8756,13156,-5565,-531,-356,268438473
-708,-9036,12772,-4603,44,-195,268438473
-532,-9340,12696,-3851,-270,-265,268438473
-360,-9272,13108,-3025,-778,-138,268438473
-480,-9444,13028,-2485,-1,10,268438473
-128,-9296,12920,-2582,248,-10,268438473
-712,-9264,12908,-3044,436,-36,268438473
-620,-9476,12748,-2607,657,-5,268438473
-644,-9692,12632,-2835,1004,-206,268438473
-648,-9860,12240,-3119,1490,-350,268438473
-1092,-10540,12492,-2023,1761,-447,268438473
-812,-10880,13248,251,1257,-385,268438473
-284,-11316,13524,2114,-252,-308,268438473
-620,-10664,13740,3635,-883,-589,268438473
-1040,-10220,13924,5047,-2110,-592,268438473
-640,-10004,13996,6018,-3581,-494,268438473
-328,-9740,14048,6469,-1508,-529,268438473
-300,-9408,14092,5911,-1660,-1199,268438473
-304,-8684,15080,6146,-1519,-1474,268438473
-980,-8312,15300,7653,-2135,-302,268438473
-176,-8164,14624,8021,-2029,-325,268438473
828,-7948,14796,6946,-448,-1496,268438473
228,-8076,15464,6011,67,-2303,268438473
-1572,-6684,16512,8860,-952,-285,268438473
-92,-6316,15676,11130,307,1137,268438473
1088,-6224,15024,9344,2838,0,268438473
412,-6352,15284,8449,5665,-1971,268438473
-632,-4892,16348,8721,5291,-2015,268438473
-1144,-4440,15996,8706,133,-537,268438473
-188,-4764,15576,7395,-486,-397,268438473
588,-5284,15812,6689,1503,-1754,268438473
-584,-4120,16456,7924,1478,-1622,268438473
-1200,-3376,15644,8599,63,-682,268438473
-816,-2752,15396,8054,-652,-130,268438473
708,-2952,16996,9811,681,-854,268438473
-92,-1964,17024,10012,2511,-1308,268438473
-704,-984,15944,9681,1233,-642,268438473
-648,-892,15980,10485,516,-148,268438473
-320,-392,16080,9822,732,-38,268438473
-380,-24,16124,8911,2674,-11,268438473
-1140,980,16364,9721,2822,114,268438473
-1536,1176,15364,9213,1177,694,268438473
-1076,884,15588,8133,-118,1299,268438473
-1000,1876,16460,7466,-700,1308,268438473
-1568,2640,15968,6726,171,1130,268438473
-1708,2704,15464,6132,354,1064,268438473
-1700,2460,14856,6228,-1537,1142,268438473
-1464,2972,15608,6187,-2527,1734,268438473
-916,3548,16476,6961,-2114,1492,268438473
-1020,4492,16012,8202,-688,780,268438473
-1344,4556,15808,8602,-749,764,268438473
-796,4836,15688,8670,-1143,622,268438473
-1096,4804,15500,7515,333,1100,268438473
-1480,4832,14884,5695,-271,2128,268438473
-1248,5184,14660,4633,-407,2558,268438473
-1176,4780,13936,3872,-1863,2385,268438473
-1096,5008,13940,4379,-2016,2002,268438473
-700,6588,14684,4758,-2479,2248,268438473
-580,7296,14364,5171,-1340,2340,268438473
236,8144,14884,6040,-56,1990,268438473
548,8044,14596,6510,1115,1239,268438473
-12,8184,14364,7746,3480,671,268438473
120,8096,14048,7722,3292,1067,268438473
-224,8172,13528,7145,3041,1423,268438473
-380,8620,13140,6177,2979,1423,268438473
-620,8296,12168,5841,2609,1478,268438473
-476,8956,12152,5473,2571,1117,268438473
-920,9084,11868,5294,1743,792,268438473
-1204,9788,12356,5029,2226,103,268438473
-1088,9432,12076,4399,2431,-372,268438473
-1380,9408,11776,3720,2059,-829,268438473
-760,9896,12184,3077,1694,-642,268438473
-1004,10628,12844,1877,1355,-507,268438473
-980,10692,12744,507,789,-470,268438473
-1576,10296,11796,-624,676,-1051,268438473
-2052,10300,11320,-688,-1,-1486,268438473
-1772,9528,11304,-459,-737,-1557,268438473
-1256,9752,11420,-416,-1298,-1493,268438473
-1096,10300,11520,-62,-243,-1454,268438473
-1520,10192,12044,-108,649,-1571,268438473
-1320,9564,11700,-544,428,-1730,268438473
-1560,9308,11988,-1189,433,-1682,268438473
-1708,9208,12052,-1935,625,-1320,268438473
-1856,9748,11980,-3122,416,-1035,268438473
-1984,9644,11572,-4118,-734,-757,268438473
-2264,9864,11980,-4496,-1181,-681,268438473
-2132,10224,11988,-4224,-1422,-723,268438473
-2308,9752,11976,-4274,-949,-783,268438473
-2240,9368,12204,-4046,-826,-761,268438473
-1968,9028,12296,-4060,-876,-659,268438473
-1552,9048,12956,-3906,-1352,-616,268438473
-1428,9164,13484,-3891,-833,-476,268438473
-1556,8808,13324,-4036,-1314,-320,268438473
-1528,8244,13332,-4450,-1803,-402,268438473
-1856,7900,13596,-4900,-167,-821,268438473
-1564,7764,13296,-5404,246,-1083,268438473
-1452,7992,13396,-5663,-870,-1104,268438473
-1988,7664,13388,-5717,-2343,-779,268438473
-1508,7564,13956,-5127,-2121,-1011,268438473
-1340,7824,14736,-4034,-1243,-796,268438473
-1632,7024,13732,-4008,-2396,-311,268438473
-960,7116,14368,-3603,-3699,31,268438473
-1240,7464,15204,-3260,-3194,705,268438473
-1380,7080,14724,-3614,-2940,913,268438473
-1160,6760,14724,-3564,-4591,1416,268438473
-908,6464,14928,-3167,-4216,1458,268438473
-140,6784,15680,-2950,-4148,1859,268438473
-264,5872,14580,-3473,-5496,2466,268438473
520,6224,14844,-2774,-6135,2624,268438473
740,6088,15520,-1647,-5137,2539,268438473
624,5636,14960,-1612,-4391,1983,268438473
988,5368,14844,-1113,-4396,1346,268438473
1076,5240,15356,-723,-3756,995,268438473
1068,5244,15836,-714,-3857,1153,268438473
1348,5400,15752,-944,-4241,1164,268438473
1132,5312,16360,-1054,-3372,1137,268438473
1680,5016,16084,-1167,-2800,921,268438473
2124,4892,15856,-1532,-3274,947,268438473
2036,4700,15940,-1393,-3613,1371,268438473
2068,4744,15828,-1432,-3322,1430,268438473
2288,4792,15620,-1614,-3210,1268,268438473
1932,4488,15616,-2215,-3802,884,268438473
2720,4352,15328,-1915,-3669,282,268438473
3004,4224,15416,-1958,-3380,40,268438473
3344,4204,15104,-1374,-3486,154,268438473
3280,3868,15360,-642,-2808,-171,268438473
3040,4220,15404,-644,-2151,-265,268438473
3088,3848,15292,-653,-2181,79,268438473
3292,3336,15100,-405,-1984,33,268438473
3188,3504,15088,-717,-1924,-161,268438473
2808,3524,15264,-1337,-2507,-47,268438473
2552,3292,15192,-1506,-2751,166,268438473
2916,3060,15400,-1779,-2986,-36,268438473
3368,3372,15308,-2099,-3485,-356,268438473
3392,3680,15460,-1817,-3450,-321,268438473
3628,3648,15648,-1704,-3347,-768,268438473
4144,3608,15304,-1871,-2757,-1304,268438473
4308,3364,15360,-1430,-1889,-1879,268438473
4620,3096,15032,-1315,-1979,-2172,268438473
4936,3220,15460,-1668,-2190,-2281,268438473
5596,3512,15576,-1837,-2510,-1877,268438473
5316,3256,15628,-1742,-3105,-1395,268438473
5136,3164,15472,-1706,-2537,-1660,268438473
5696,3248,15376,-1426,-2000,-2397,268438473
6228,3608,16228,-968,-1197,-2812,268438473
6348,3232,15968,-1128,-504,-2682,268438473
5620,3040,15560,-1215,-226,-2421,268438473
5864,2956,15208,-638,741,-3045,268438473
6436,2856,15620,-328,537,-2752,268438473
5792,2608,15272,-618,582,-2469,268438473
5688,2640,14724,-688,751,-2640,268438473
6080,2692,14900,-144,677,-2401,268438473
6288,2800,15456,-247,928,-2182,268438473
5868,2884,15432,-495,1337,-2182,268438473
5200,2768,15244,-753,1887,-2277,268438473
5348,2588,14936,-727,1986,-2262,268438473
5268,2516,14764,-402,2070,-2324,268438473
4916,2812,15140,-95,2314,-2365,268438473
4548,3120,15284,-234,2014,-2103,268438473
4884,2988,15360,-479,1199,-1627,268438473
5220,2932,15764,-534,686,-986,268438473
5380,2776,15932,-698,788,-508,268438473
5012,2780,15816,-540,952,-181,268438473
4876,2596,15572,37,969,206,268438473
4856,2880,16128,619,1717,400,268438473
4480,2784,15868,735,1630,818,268438473
4044,2880,15696,1283,2053,934,268438473
3736,3104,16084,1527,2359,699,268438473
3460,3388,16336,1444,2423,621,268438473
4064,3424,16752,1848,2094,1087,268438473
3576,3676,16532,1851,1970,1075,268438473
3860,3988,16520,2180,1766,770,268438473
3868,4424,16744,2357,2784,520,268438473
2852,4568,16304,1830,3801,105,268438473
2464,4348,15836,1530,3103,208,268438473
2472,4184,15356,1059,1972,576,268438473
2200,4412,15188,896,1430,909,268438473
2200,4604,15320,978,1353,907,268438473
2264,4704,15048,1361,1726,674,268438473
2172,4840,14852,1852,1515,719,268438473
2644,4940,14952,2051,1579,705,268438473
2364,5048,14896,2320,1567,899,268438473
2204,4848,14148,2913,1586,819,268438473
2656,4864,14216,3638,1603,432,268438473
2724,4760,14380,3811,1808,-96,268438473
2584,5116,14140,4062,2220,-382,268438473
2476,5316,14640,3928,1645,-297,268438473
2096,5380,14732,3308,1446,-131,268438473
1944,6364,15092,2922,1141,255,268438473
1652,6148,15268,2629,376,727,268438473
1460,6312,15680,2201,854,640,268438473
1232,6516,15308,1841,1165,724,268438473
1160,6348,14996,2158,483,1234,268438473
1000,6336,15044,2565,456,1611,268438473
1088,6636,15044,2764,826,1556,268438473
1140,6564,14532,3351,1394,1443,268438473
508,7212,14892,3905,2480,1378,268438473
852,6992,14212,4476,2600,553,268438473
1208,6500,14056,3841,2780,-418,268438473
812,7140,14636,4088,3272,-1253,268438473
904,6892,13904,3699,2779,-1431,268438473
-220,6948,13804,2990,2576,-1366,268438473
-620,7352,13660,2437,1632,-1524,268438473
76,8320,13688,704,-589,502,268438473
192,8000,13084,752,-216,396,268438473
132,7980,13276,1008,294,33,268438473
224,8172,13208,1174,368,-102,268438473
212,8264,13720,1222,159,-350,268438473
16,8280,13512,869,188,-653,268438473
-116,8828,13896,150,56,-787,268438473
-288,8628,13772,-879,-103,-774,268438473
-228,9012,13448,-1676,-551,-391,268438473
308,8464,13392,-2627,-1417,534,268438473
788,8060,13352,-3497,-2393,1449,268438473
844,7908,13712,-3673,-2035,1661,268438473
1316,7852,14140,-3587,-670,1213,268438473
1216,7084,13824,-4187,-809,504,268438473
1012,7324,14868,-4325,1047,-421,268438473
840,7576,15324,-4446,5329,-2263,268438473
-8,6160,13572,-5854,3871,-2437,268438473
176,6364,14968,-6425,3478,-2071,268438473
-536,6032,14916,-7700,3236,-2138,268438473
-1156,5768,14932,-8591,3549,-2241,268438473
-1412,5392,14792,-8975,3165,-2121,268438473
-2296,4556,14484,-8958,1091,-1043,268438473
-2068,3720,14444,-8678,-1127,-420,268438473
-1620,3116,14992,-8304,-991,206,268438473
-1880,2852,15204,-7532,-607,708,268438473
-2000,2460,15052,-7022,-1340,1263,268438473
-1760,2284,15392,-6095,-3155,1714,268438473
-812,2604,16636,-4684,-3783,1624,268438473
-212,2328,16724,-4433,-2947,1646,268438473
228,1628,16096,-6081,-2750,2481,268438473
240,1168,15824,-7236,-3228,3386,268438473
204,524,15652,-8318,-3734,3181,268438473
544,528,15836,-8687,-3267,2600,268438473
452,548,15684,-7620,-1899,1903,268438473
164,200,15824,-6844,-1728,1416,268438473
296,-672,15512,-7109,-809,1420,268438473
1096,-560,16456,-7109,1121,1550,268438473
656,-680,16864,-6695,1985,1491,268438473
84,-1120,16252,-6554,1520,1513,268438473
272,-1768,15784,-6503,586,1381,268438473
748,-2028,16472,-6193,-491,1118,268438473
332,-2056,16448,-6628,745,757,268438473
44,-2236,16112,-6883,1503,696,268438473
-148,-3204,15848,-6497,616,750,268438473
-404,-3552,15584,-5990,838,820,268438473
-464,-3796,15748,-4711,675,543,268438473
-240,-4308,15972,-3211,2235,72,268438473
-652,-4584,15648,-1940,3012,-44,268438473
-944,-4404,15472,-983,1227,-46,268438473
-712,-4252,15964,-88,815,-235,268438473
-584,-4408,16072,122,991,-554,268438473
-168,-4184,16812,1267,375,-610,268438473
-724,-3960,16796,2878,-800,-773,268438473
-856,-3732,16372,4475,-3247,-700,268438473
-776,-3780,16264,5799,-5338,-744,268438473
-88,-3388,16440,5589,-4161,-1235,268438473
-56,-3164,16256,5859,-1942,-1943,268438473
-96,-2288,16348,6665,1277,-3153,268438473
-696,-1504,16084,8073,97,-3496,268438473
-456,-584,17200,9412,-543,-3609,268438473
-596,-396,17180,8878,842,-3970,268438473
-396,-760,16356,7311,1359,-3999,268438473
-728,-704,15544,5940,-816,-3555,268438473
52,340,16880,5707,-1630,-3261,268438473
1016,400,17328,5221,-3706,-3011,268438473
1724,-76,16536,3543,-3909,-2305,268438473
1448,312,16256,3287,-2736,-2220,268438473
1620,976,16920,2678,-1,-2673,268438473
1640,820,15984,2646,1437,-2243,268438473
1608,420,15480,2741,2402,-1660,268438473
1264,448,15592,2814,2856,-1138,268438473
652,1140,15476,3067,2551,-532,268438473
584,1144,15520,3219,1760,44,268438473
676,1452,15976,2763,1667,117,268438473
624,1760,16188,2028,2924,334,268438473
-160,1364,16004,858,6359,-88,268438473
-384,1768,16024,-157,8005,-639,268438473
-836,1816,16140,-609,7082,-254,268438473
-1444,1960,16184,-590,6581,-259,268438473
-1696,1664,16092,-257,8187,-721,268438473
-1768,1744,16240,312,9152,-1112,268438473
-2732,1780,16384,459,9393,-1226,268438473
-3360,1596,15928,390,9534,-1260,268438473
-3592,1548,15448,517,9596,-969,268438473
-3844,1576,15816,397,13234,-1349,268438473
-5004,2008,15820,1143,16017,-1985,268438473
-5772,1752,14596,1448,17303,-1561,268438473
-6792,1776,14380,1477,15752,-858,268438473
-7712,1844,13376,1034,16004,-371,268438473
-8516,2020,12924,1121,13372,431,268438473
-9072,2088,12456,693,11275,880,268438473
-9080,2516,11840,103,10950,945,268438473
-9644,1836,11460,-210,8754,845,268438473
-10188,1828,10812,-568,4813,1182,268438473
-10592,1912,10624,-687,-2151,1253,268438473
-10040,2084,10492,-249,-9587,1412,268438473
-9232,2100,11160,-356,-13972,1226,268438473
-8640,2132,11828,-1401,-17118,1586,268438473
-7916,2364,12384,-2760,-18578,2285,268438473
-6868,2188,13696,-3675,-20255,2808,268438473
-6008,2044,14492,-4076,-21500,3092,268438473
-4584,1564,14888,-4172,-19518,2937,268438473
-3332,1628,15844,-3748,-16117,2335,268438473
-2172,1592,16240,-2653,-13543,2219,268438473
-1752,1336,16616,-1939,-11385,2725,268438473
-2004,1364,16748,-2024,-8163,2135,268438473
-1896,1392,16612,-2090,-6401,1575,268438473
-1556,1500,16468,-2395,-6035,1621,268438473
-1044,1264,16892,-2298,-5211,1385,268438473
-472,1240,17036,-2269,-4172,1277,268438473
-724,1276,16968,-2236,-4079,1588,268438473
-656,808,16132,-1738,-3860,1675,268438473
-112,772,15972,-1226,-4464,1834,268438473
240,640,16240,-895,-4527,2067,268438473
116,552,16300,-1141,-3838,1418,268438473
920,232,15696,-584,-1483,396,268438473
1236,548,15824,440,-890,391,268438473
824,552,16260,254,-1368,1155,268438473
336,480,15948,-31,-1611,1036,268438473
-164,568,15772,-234,-2291,562,268438473
252,652,16132,-425,-2826,316,268438473
1000,600,16492,-740,-3054,604,268438473
1336,260,16352,-928,-2737,687,268438473
1276,616,16292,-505,-1775,515,268438473
1232,472,16308,-38,-1139,115,268438473
1140,504,16332,-121,-1344,182,268438473
1164,268,15988,-220,-1624,273,268438473
1556,220,16032,52,-1032,172,268438473
1600,340,16092,-8,-980,174,268438473
1744,208,16744,-195,-762,135,268438473
1632,476,16516,-521,-370,-71,268438473
1652,412,16644,-432,615,-307,268438473
1392,336,16216,-629,-253,-382,268438473
1164,500,16656,-581,993,-532,268438473
544,528,15972,-247,1198,-1125,268438473
1260,452,16228,122,1045,-1134,268438473
1484,84,16052,-320,859,-929,268438473
1208,112,15848,-345,501,-746,268438473
1412,368,16448,-774,943,-928,268438473
1752,156,16400,-1212,1203,-775,268438473
1452,-164,16188,-1040,718,-651,268438473
1136,48,16240,-1036,506,-581,268438473
1008,-272,15760,-801,349,-730,268438473
1132,-252,15764,-467,-151,-827,268438473
1632,-172,16160,-504,-248,-296,268438473
1404,-368,15744,-241,-374,-97,268438473
1124,-204,15720,52,-481,-354,268438473
1284,160,15932,435,-371,-400,268438473
1144,112,16192,487,-180,-253,268438473
1116,124,16344,524,-62,-231,268438473
1676,24,16284,278,-62,89,268438473
1572,28,16360,31,81,383,268438473
860,52,16072,85,72,49,268438473
772,224,16008,228,-160,-196,268438473
872,92,16012,230,-240,-25,268438473
932,-96,16444,-122,-111,61,268438473
740,40,16080,-380,-51,-88,268438473
736,120,16220,-616,-165,134,268438473
1084,300,16436,-605,-317,57,268438473