ax, ay, az, gx, gy, gz, temp
-1612,-2364,16668,1012,-235,280,268438473
-1188,-2148,16492,412,37,-145,268438473
-1488,-2204,15880,389,449,-550,268438473
-1404,-2472,15932,334,-351,-382,268438473
-1440,-2488,15696,202,-119,-219,268438473
-1544,-2564,15164,60,194,-200,268438473
-1380,-2664,15308,239,738,-214,268438473
-1216,-2768,15248,176,1288,108,268438473
-1064,-2356,15076,88,1143,393,268438473
-2088,-1592,16504,2195,731,170,268438473
-4036,1088,24088,3379,-6356,569,268438473
-7364,2624,28240,-5967,-4170,-3750,268438473
-6140,-352,23156,-17541,-832,-10844,268438473
2652,-4144,16024,-25905,2587,-10469,268438473
5396,-8064,5620,-31105,-2947,-1197,268438473
2828,-8988,-1588,-26892,-12102,4333,268438473
600,-10328,-2612,-9715,-10637,3050,268438473
1992,-8816,1228,9052,-3502,774,268438473
56,-5024,6352,28173,3071,118,268438473
-4744,1244,22780,32767,988,-1579,268438473
-2656,4760,32767,27832,473,-5504,268438473
1552,3448,32767,1802,-382,-4240,268438473
-2560,-612,24796,-19496,-72,-4574,268438473
1836,-4868,17520,-20223,784,-1263,268438473
2080,-7244,11484,-16175,771,451,268438473
3256,-8488,5824,-7935,4034,2881,268438473
1596,-7684,2528,1727,4965,3878,268438473
64,-6228,3416,9376,2049,3501,268438473
-1100,-3724,7552,15816,-3338,1527,268438473
-956,-40,19604,18615,-9798,672,268438473
3184,1848,32767,9909,-3128,1847,268438473
-5380,1992,31600,-16551,-615,1295,268438473
-2020,-3432,20692,-24402,1281,-2125,268438473
1824,-7264,14248,-22768,2748,-1164,268438473
3248,-10548,3224,-17278,-4027,1544,268438473
3784,-10628,352,-2983,-3222,4183,268438473
2616,-9264,720,13476,2847,4908,268438473
-1308,-5128,5292,27621,4743,3090,268438473
-2508,816,20256,32767,-3565,260,268438473
-532,4740,32767,15889,-507,-1870,268438473
-3932,6316,32767,-10948,100,-670,268438473
-3192,-228,21216,-20463,2971,-3647,268438473
172,-5196,17264,-20693,4384,-2690,268438473
1752,-7440,8564,-17262,2666,-951,268438473
1720,-9912,2240,-5203,-317,944,268438473
1532,-8280,1688,6164,1861,1974,268438473
-400,-5872,4856,16272,1115,1799,268438473
-1016,-2784,13876,21266,-2367,354,268438473
-828,1336,26428,15745,-3290,631,268438473
-5920,952,32767,1896,3347,-967,268438473
-4428,316,25288,-16009,505,-2176,268438473
-1792,-4308,18348,-17445,1642,-3588,268438473
816,-6908,12996,-14338,799,-1739,268438473
2044,-8444,6516,-9141,120,101,268438473
1464,-8584,1936,-2110,-2979,2211,268438473
1608,-8160,2936,7726,-2678,2595,268438473
948,-6276,6528,17583,364,2462,268438473
-1092,-2112,15992,22748,-4887,2379,268438473
10836,796,32767,19991,-4769,3265,268438473
-5224,4580,32767,-2327,832,972,268438473
-5640,868,26848,-15513,1018,-2880,268438473
-1000,-2568,18872,-18620,3050,-4630,268438473
940,-5980,11704,-18696,1901,-2437,268438473
2524,-8032,4836,-13542,323,84,268438473
2064,-9452,1348,-5003,-1453,2203,268438473
2064,-7748,2072,4617,216,3074,268438473
772,-7020,4636,13206,-562,3440,268438473
588,-3832,10764,23110,-5874,4671,268438473
-2300,1772,19960,31526,-3373,2965,268438473
-4068,-2820,21568,24352,3393,5166,268438473
-6248,5116,32767,1076,7603,-966,268438473
-10576,764,29568,-12669,5121,-4709,268438473
-3312,296,20320,-20083,1334,-10413,268438473
3144,-2512,14836,-22718,2939,-6737,268438473
2164,-5716,8808,-23640,2887,147,268438473
1476,-6796,4524,-19744,453,3457,268438473
-1548,-8556,4784,-13150,-3113,3344,268438473
-1360,-8664,4096,-2322,-726,2185,268438473
-1212,-7808,10288,8242,-662,999,268438473
-2040,-6544,13656,12009,1052,978,268438473
-2392,-6140,15728,9855,623,684,268438473
-1896,-5540,17336,5974,-499,1525,268438473
-512,-5492,16352,4467,1411,2849,268438473
-3016,-4456,17668,2634,3948,1120,268438473
-3340,-4348,15400,1478,529,145,268438473
-2064,-4764,13372,-725,-5458,94,268438473
-444,-6100,12104,188,-4387,177,268438473
-584,-6040,12512,4609,-1124,1148,268438473
-3764,-3520,19504,8631,-1620,814,268438473
-5856,152,28048,2606,1146,-3874,268438473
-3804,616,24456,-11315,2553,-7472,268438473
1288,-4848,14660,-19136,-4029,-5171,268438473
3168,-8456,7588,-17248,-2598,-365,268438473
2224,-10532,2564,-7956,-2979,3816,268438473
232,-9624,3524,3128,-1619,4429,268438473
-1548,-7180,6264,12613,-4494,2618,268438473
-1500,-2676,17708,19273,-5233,504,268438473
-248,100,29116,17012,2601,-608,268438473
-5120,-680,30860,-1913,6611,-954,268438473
-4076,-3252,20620,-12036,2016,-3952,268438473
340,-7544,13148,-10812,1163,-1556,268438473
604,-8476,8060,-11146,2069,915,268438473
404,-9444,3300,-6342,-4075,2335,268438473
416,-7752,4332,1687,-4476,2383,268438473
-688,-4964,9140,11232,-5279,2193,268438473
-1540,-1152,21424,18522,-2175,929,268438473
-3496,1416,32767,10915,4621,-986,268438473
-6524,-180,28180,-7203,1288,-5928,268438473
-1392,-4352,19320,-11835,502,-7758,268438473
2548,-7908,14016,-9571,3279,-4110,268438473
2904,-8140,10636,-11746,3435,517,268438473
400,-8476,4820,-10542,-2193,2413,268438473
880,-8468,3360,-3449,-4227,2041,268438473
96,-7672,5964,5621,-2933,2192,268438473
-1028,-5396,14908,12495,-3403,2083,268438473
-3552,-2688,21788,13550,1874,78,268438473
-2248,-2340,28236,4435,3093,-2568,268438473
-3268,-3832,22208,-5338,558,-3592,268438473
-224,-6320,15732,-6270,872,-3580,268438473
2016,-7892,12508,-5647,190,-209,268438473
300,-8296,9464,-5524,-860,1551,268438473
332,-7848,8504,-2737,-1789,2040,268438473
-812,-6700,10704,1337,-2577,1914,268438473
-1780,-5100,15136,4561,-1778,624,268438473
-2284,-4672,17728,3656,242,-640,268438473
-1740,-6040,16496,1847,-1749,-720,268438473
-1008,-5804,17504,267,-1407,-394,268438473
-1284,-6072,16192,-188,101,18,268438473
-1472,-5808,15496,-406,-182,87,268438473
-1756,-5384,15480,-1263,-313,-614,268438473
-1932,-5320,14792,-1081,-1247,-1723,268438473
-1024,-5160,14988,-271,-2405,-2758,268438473
496,-5792,15812,-182,-1357,-2762,268438473
884,-6788,14852,558,55,-1499,268438473
216,-6644,14584,1397,-66,-480,268438473
-208,-6320,14692,1248,-2090,-316,268438473
-700,-5828,14860,1083,-4395,-797,268438473
120,-5888,15196,377,-3356,-1949,268438473
344,-6468,13676,-71,-2531,-2478,268438473
728,-5108,13628,-40,-4648,-2261,268438473
680,-5420,14804,-951,-5203,-1682,268438473
216,-6320,14412,-1329,-2827,-1610,268438473
2968,-7268,14148,889,492,-810,268438473
3644,-6908,14576,3454,4963,1705,268438473
1452,-5356,15464,4176,6390,1388,268438473
-680,-5448,15160,2703,6311,-455,268438473
-440,-4840,15716,2443,6872,-1415,268438473
764,-5892,15708,1886,9504,-2546,268438473
296,-5044,14496,1120,6378,181,268438473
-696,-4392,19944,1402,2136,2059,268438473
-3564,-3532,18996,-4356,-6085,2201,268438473
-1996,-5676,17384,-9420,-3774,-1763,268438473
-500,-9404,7564,-11807,-11299,-1109,268438473
1464,-8700,2500,-8948,-15619,1214,268438473
984,-6176,6500,-6091,-19906,5211,268438473
256,-3252,18476,4204,-4834,2538,268438473
-3912,-2576,32767,13190,6137,-2003,268438473
-2076,-2672,32767,4540,9510,-8990,268438473
2596,-8132,13492,-14943,5362,-11353,268438473
9332,-12288,-6408,-28705,-5157,1028,268438473
3348,-7384,-8580,-30423,-14008,6394,268438473
-3680,-8544,12988,2857,-20651,10214,268438473
-4752,-6340,32767,32767,18521,1950,268438473
12708,-11612,7064,-23011,-229,-7406,268438473
4036,-5700,1020,-16777,-15405,4558,268438473
-8096,-5972,19440,19847,2140,11170,268438473
1320,-7408,9656,-2426,3930,2088,268438473
20,-5624,17244,7827,660,847,268438473
16,-5316,18532,10596,2207,2054,268438473
624,-2208,18120,7571,580,-564,268438473
-88,-6600,14940,3694,-6255,-1398,268438473
1372,-4340,15368,3955,-4015,-1538,268438473
1744,-5060,14940,1031,-4224,-1284,268438473
336,-5044,15272,-2646,-4113,-723,268438473
448,-5104,14552,-2618,-3434,-1459,268438473
2108,-5564,14524,-1303,-2821,-1774,268438473
2244,-5348,15660,-1514,379,-2093,268438473
772,-5840,13312,-2029,3581,-2728,268438473
1868,-5628,14516,-736,1337,-2295,268438473
2176,-6176,15720,-233,297,-1414,268438473
2076,-4572,15712,665,4292,-993,268438473
384,-6096,14316,834,4919,-1436,268438473
416,-5204,15696,237,1730,-4,268438473
-276,-5260,15944,-600,1660,-861,268438473
788,-5552,15732,-776,3875,-1426,268438473
1520,-7800,14876,-80,7749,-864,268438473
2272,-6776,14496,2164,12997,707,268438473
1184,-5944,14992,2850,16222,778,268438473
400,-6504,14880,3487,18867,1895,268438473
-320,-5532,15308,5467,31200,2482,268438473
-1504,-4740,13588,6190,32767,3611,268438473
-2928,-4820,13636,4598,29824,7284,268438473
-6912,-3468,13528,417,19546,9793,268438473
-9268,-3192,13972,-2716,10104,9218,268438473
-12360,-2092,13272,-5547,-2263,7833,268438473
-17716,-1032,14296,-11817,-29666,4216,268438473
-17244,-1032,11736,-18992,-32768,-5548,268438473
-9988,-3060,14644,-19074,-32768,-17235,268438473
7716,-8888,15700,-4836,-11339,-19494,268438473
15776,-10720,13396,-219,3311,1935,268438473
9536,-7884,11468,-6507,4165,24333,268438473
668,-6460,7912,-6903,5968,28631,268438473
-5960,-5084,5880,-49,1027,25287,268438473
-13464,-1264,13008,3998,-13630,15720,268438473
-20184,-788,16660,590,-14729,-1736,268438473
-23488,1264,15848,1636,-9109,-24466,268438473
-8484,4276,17120,6722,-10857,-32768,268438473
12924,-5272,24292,3498,-3566,-32768,268438473
20932,-10500,20156,-5073,1387,-15198,268438473
13744,-12452,13172,-6647,6179,4120,268438473
12512,-11004,11136,-2269,7641,12740,268438473
7232,-6516,8800,-2457,7059,23535,268438473
-3920,-768,6420,810,-9716,24767,268438473
-14664,-32,13160,7284,-12381,8957,268438473
-12024,208,16924,12761,-4499,-11630,268438473
-11156,684,21444,8586,2152,-29701,268438473
4980,-4032,27072,3340,3527,-32605,268438473
12928,-9580,21924,-6682,5936,-13533,268438473
12512,-11440,17844,-11965,10098,5949,268438473
9932,-9216,5664,-13910,5582,20199,268438473
1624,-3440,1360,-5735,-8331,28509,268438473
-11828,-3688,6676,5481,-12017,14367,268438473
-14640,-700,12928,10802,-6418,-8858,268438473
-12632,-40,21512,14972,2984,-21870,268438473
2112,-2640,26976,4682,1547,-27080,268438473
12232,-9368,26372,-7726,7483,-10719,268438473
15832,-9292,18192,-11486,13067,10751,268438473
9576,-9448,6244,-9096,3717,24629,268438473
-1308,-2788,7344,-1599,-12387,28570,268438473
-16164,-748,12092,5091,-7890,11112,268438473
-14592,-812,964,10860,-6001,-12815,268438473
-10596,2196,20108,7487,1466,-32768,268438473
9160,-6176,24744,658,36,-29553,268438473
17320,-11356,17864,-7848,387,-3402,268438473
11464,-9976,10320,-7064,5893,16834,268438473
5836,-7004,7576,-3692,-4210,24812,268438473
-6160,-2204,9716,2795,-6242,22828,268438473
-17588,-672,13420,8214,-2401,1499,268438473
-16596,2588,18912,10268,861,-19287,268438473
-944,-132,27208,6452,4804,-32335,268438473
12828,-7356,24488,-7519,4350,-16005,268438473
15504,-11048,13396,-10889,3796,8475,268438473
9484,-10544,6232,-5645,7158,20389,268438473
2132,-2216,4340,-2695,-4403,27376,268438473
-11364,-2664,7760,6850,-12982,17889,268438473
-15976,1324,14700,16729,-1137,-2758,268438473
-11568,5516,26820,17959,3539,-21449,268438473
400,-1904,31852,1363,4922,-24553,268438473
6076,-7928,19388,-13195,6900,-11042,268438473
10792,-7204,13376,-16276,9288,6651,268438473
6768,-8100,1684,-8736,-5459,18618,268438473
-1304,-5184,5032,4408,-17009,20605,268438473
-13024,-992,10784,13793,-1557,7808,268438473
-17700,3392,18884,15832,1276,-10520,268438473
-5724,1960,30916,3953,3791,-24448,268438473
4824,-3272,27912,-10205,7153,-17414,268438473
11016,-8552,14936,-13991,4812,448,268438473
10176,-10428,6804,-4827,1604,15104,268438473
2496,-4204,7168,-2187,-7557,23684,268438473
-11500,-2576,10116,5312,-5397,13911,268438473
-19084,2276,17264,12510,3190,-4897,268438473
-10424,2816,25304,9653,6687,-22041,268438473
5004,-3316,27488,-4272,5612,-15387,268438473
6660,-7984,12984,-8573,-1943,1321,268438473
3952,-7868,11528,-1127,-2790,8113,268438473
564,-5760,13152,-741,1764,10366,268438473
-4432,-3564,10712,-534,-1249,8201,268438473
-5716,-2340,12836,2995,-897,1783,268438473
-3828,-2292,15800,5074,1053,-1218,268438473
-1908,-3108,17284,3198,-912,-281,268438473
-1796,-3720,17028,2312,-659,1096,268438473
-2516,-3628,17368,2092,-653,1797,268438473
-2780,-3300,18000,1371,-1408,1662,268438473
-3476,-2420,20372,-578,-1637,1945,268438473
-5780,-1772,22896,-8112,-3923,620,268438473
-6080,-2136,22276,-18665,-6409,-4181,268438473
-4864,-2984,18472,-25872,-7999,-7761,268438473
-384,-4500,12148,-26622,-6550,-9225,268438473
3424,-7608,10204,-23220,-6560,-5543,268438473
2824,-8688,7996,-19584,-6393,-832,268438473
2276,-9564,6720,-15402,-3070,2494,268438473
844,-9860,3508,-7993,-644,2239,268438473
644,-10340,2480,3481,540,1327,268438473
484,-9688,4148,16603,-1722,1051,268438473
-168,-6552,7580,28284,-3977,355,268438473
2272,-4596,14344,31752,2161,1974,268438473
544,-4420,18368,30150,1502,3091,268438473
-1332,-1444,25348,19822,2285,2109,268438473
-1156,-3752,25120,6921,2902,1552,268438473
-1996,-2700,22104,725,2170,132,268438473
-1424,-3208,21508,-698,3159,-210,268438473
-3024,-2356,23060,-6002,3356,-578,268438473
-4684,-2364,21800,-18697,-1392,-4004,268438473
-2484,-2312,18624,-31287,-6182,-8211,268438473
424,-5176,12180,-32768,-6286,-8580,268438473
3516,-8436,6128,-28126,-6391,-4661,268438473
3188,-10464,4284,-17779,-2221,411,268438473
2608,-10292,3688,-9381,1487,2963,268438473
1756,-10736,2560,775,1322,4411,268438473
580,-9532,1904,11929,1897,3970,268438473
-488,-9440,3940,26958,-654,1907,268438473
840,-5932,7984,32767,-546,-187,268438473
2040,-2252,19748,32767,589,1576,268438473
1116,-404,27912,29684,5359,4804,268438473
-2712,-680,28452,6993,4758,4389,268438473
-3700,-1408,21520,-3080,776,-241,268438473
176,-3196,20916,-1829,1483,-1442,268438473
-968,-3472,16640,-2279,-1543,97,268438473
-384,-3872,14972,-1345,-459,265,268438473
-368,-3800,13456,-660,2142,1089,268438473
-952,-3736,12504,831,-937,1143,268438473
-628,-3680,14272,2480,-1400,763,268438473
-608,-3392,15484,2318,-70,351,268438473
-600,-3480,16044,1900,133,-120,268438473
-452,-3220,16228,2261,-8,123,268438473
-716,-2664,16664,1744,-882,652,268438473
-1352,-3016,17116,438,-1171,478,268438473
-1412,-3272,17808,-745,-813,-209,268438473
-1712,-2808,17960,-3350,-1019,-976,268438473
-2152,-2800,19184,-7068,-1523,-2285,268438473
-1620,-1932,17980,-12916,-1400,-3879,268438473
-1868,-4072,16084,-14487,-1331,-4996,268438473
-760,-4792,15660,-15695,-3870,-5039,268438473
-344,-5988,16144,-17401,-4597,-5181,268438473
32,-6272,15224,-21357,-2789,-5874,268438473
1452,-6928,12172,-24923,-4516,-5665,268438473
1708,-7944,10076,-25222,-6343,-4194,268438473
1788,-7976,10124,-23906,-5735,-3680,268438473
2088,-8768,9244,-25141,-2419,-2902,268438473
1256,-11080,7248,-22418,-1564,-2897,268438473
1872,-12352,7564,-18771,-3606,-3038,268438473
2220,-13636,5728,-14858,-4261,-3327,268438473
3076,-15272,7200,-8281,-916,-2726,268438473
3272,-15552,6944,-5194,835,-1485,268438473
3880,-16316,7084,-848,1191,-490,268438473
4132,-15640,7648,2017,3198,1552,268438473
3192,-15492,6356,4943,5228,2988,268438473
3760,-15264,6088,9935,3866,3263,268438473
2528,-14224,7352,14309,146,2508,268438473
3484,-12696,9836,13549,-1165,2350,268438473
3264,-12248,10412,14217,378,3202,268438473
2520,-11280,11312,13972,2862,4034,268438473
1876,-11420,11740,12376,2836,4510,268438473
1684,-11104,11776,12183,397,5210,268438473
1216,-10300,12940,13927,2967,5339,268438473
608,-9996,12732,15081,6104,5441,268438473
-272,-8636,12652,13814,4279,5593,268438473
-568,-8464,12600,11895,-382,5505,268438473
-784,-7528,13436,13405,266,5004,268438473
-1144,-7004,13792,15319,3759,4010,268438473
-1108,-5484,14016,15798,2939,4181,268438473
-1628,-4980,14316,14892,812,4269,268438473
-1920,-4724,15244,14488,-1270,3925,268438473
-1936,-4224,15556,13854,-1141,2803,268438473
-2012,-3188,15308,12071,-1524,1536,268438473
-2204,-2536,15532,11772,-2822,702,268438473
-1256,-2384,16832,11560,-1607,-778,268438473
-1476,-1800,18224,10291,221,-1249,268438473
-436,-1028,20000,5958,-2196,-216,268438473
-2412,-472,23424,-3620,-9959,1181,268438473
-2736,-404,28684,-18428,-13653,-756,268438473
-1660,-56,28772,-32768,-1144,-6171,268438473
-804,-2696,20832,-32768,664,-4445,268438473
3104,-2096,-1928,-32768,-2130,-5343,268438473
4420,-11300,-9156,-32106,-21079,1553,268438473
3472,-11876,-6832,-811,-14207,10797,268438473
-4684,-1436,12280,32767,8410,6349,268438473
-7784,3676,32767,25312,7460,-7072,268438473
-7948,-1052,32767,-14994,4694,-16004,268438473
3944,-7888,15272,-24384,6804,-18134,268438473
14196,-13560,1928,-9596,-1104,1386,268438473
10752,-9968,1272,7551,-8718,19188,268438473
-2916,-4000,10972,17650,-95,20371,268438473
-17232,-568,29536,18626,13841,1915,268438473
4248,-5876,21468,-16896,8918,-24601,268438473
13856,-12472,-6272,-21592,-22350,2650,268438473
7740,-8036,-1604,-760,-21490,21216,268438473
-13336,-3544,13168,18315,4266,11642,268438473
-19712,16,29928,11630,10047,-15919,268438473
-7536,-1760,24856,-3618,6911,-31036,268438473
25148,-10268,10652,-14520,-17620,-10174,268438473
19184,-9756,6356,-3824,-21493,22469,268438473
-2008,-4504,10160,5931,2849,24258,268438473
-17988,-1992,19572,7100,4085,4830,268438473
-15488,-496,22548,-637,5220,-21659,268438473
2916,-9220,16356,-4801,6136,-31056,268438473
26272,-15848,8716,-7809,-21502,1539,268438473
11476,-8704,8488,908,-9722,25692,268438473
-6472,-4216,12032,7511,2436,19752,268438473
-16712,-1640,22248,8435,7319,-852,268438473
-11324,-260,21720,-57,7323,-21404,268438473
12144,-9584,13432,-5629,-2606,-23759,268438473
18980,-15552,8948,-4786,-21093,9186,268438473
4856,-9432,7680,556,-8089,21638,268438473
-8280,-6560,11128,6903,3989,10928,268438473
-11656,-2248,20992,8833,13253,-8854,268438473
-7004,-1200,19972,2083,10401,-20937,268438473
14804,-9464,13164,-4554,-8572,-6753,268438473
7008,-9464,11744,1852,-3645,6517,268438473
2064,-8120,14068,3093,-697,4478,268438473
1776,-7172,15804,2770,1093,3940,268438473
836,-6156,14604,3187,679,3788,268438473
604,-5456,14128,3843,733,2322,268438473
664,-5704,14708,3634,500,904,268438473
1124,-5948,15460,3292,394,635,268438473
332,-5872,15480,3690,1219,713,268438473
60,-5892,15244,4019,1088,439,268438473
788,-5484,15348,4796,1499,204,268438473
596,-5288,15192,5522,2812,577,268438473
104,-4480,15336,6419,2074,907,268438473
-316,-4200,16444,5522,459,661,268438473
1016,-4276,19444,3550,-875,-182,268438473
456,-2408,25416,-3102,-2130,1893,268438473
-1604,-2056,27512,-21328,-101,-1474,268438473
832,-1584,19328,-32768,-5153,-4937,268438473
2480,-5808,-552,-32768,-14083,-1338,268438473
4788,-11224,-9100,-18622,-14408,2224,268438473
-4804,-13504,-9748,18017,15449,3036,268438473
-3100,-4644,-164,32767,8077,3008,268438473
332,3168,32767,32767,-1518,-4368,268438473
800,-672,32767,-8970,904,-2838,268438473
-1364,-5892,19740,-27971,-4646,-2712,268438473
2856,-8804,9228,-19397,-1321,-3764,268438473
6172,-10884,3764,-8548,-4548,-903,268438473
4956,-9948,1412,6439,-3438,3180,268438473
1500,-6800,6228,19971,2627,4150,268438473
-708,-3560,14244,26562,3999,1060,268438473
2416,-1132,27924,18117,-866,1080,268438473
-1080,-1204,32767,-6000,2291,1952,268438473
-3744,-2388,26580,-22912,805,-3672,268438473
804,-5164,18800,-26598,1125,-7362,268438473
4516,-8264,12404,-27505,271,-3610,268438473
3964,-10552,2092,-21783,-441,-527,268438473
3924,-11240,-4356,-9109,-8061,2337,268438473
2724,-9824,-2580,10443,-6248,2859,268438473
992,-7560,4020,31506,7327,298,268438473
2052,-2836,15168,32767,1996,-902,268438473
4060,-1544,29436,23441,-3485,531,268438473
456,-2892,32767,-5001,895,1856,268438473
-260,-4080,26896,-19139,3509,-1775,268438473
916,-5232,18376,-26097,4170,-1503,268438473
2324,-8048,11752,-26057,5037,251,268438473
1424,-9156,852,-21929,168,825,268438473
1924,-11436,-5500,-8645,-13181,774,268438473
3832,-9620,1452,14278,-4602,717,268438473
1792,-8196,7428,32767,7373,-1333,268438473
3176,-676,21224,32767,2748,1776,268438473
2260,-1404,32767,17540,2868,3368,268438473
-2476,-1716,32767,-13756,-4246,1748,268438473
-2556,-2908,24812,-28290,-3843,-1568,268438473
864,-6396,16356,-30595,716,-2208,268438473
2764,-8368,8020,-27887,3116,-516,268438473
2016,-10448,-4756,-23489,-7343,246,268438473
4016,-10984,-6840,-4025,-16235,2116,268438473
3264,-9804,-2544,24022,4998,1993,268438473
340,-4352,8020,32767,11665,1613,268438473
1944,-2656,25860,32767,2866,791,268438473
1732,-1204,32767,4748,5276,1485,268438473
-644,-1688,32767,-30258,-4219,2162,268438473
-3076,-6468,16780,-32768,-5455,175,268438473
212,-9176,8668,-28425,635,-4004,268438473
3036,-12048,-2824,-21100,-5824,-5813,268438473
4900,-12256,-8340,-4604,-9669,-1740,268438473
1088,-10208,-2648,21053,4758,2030,268438473
-220,-5148,5724,32767,11349,1675,268438473
3944,-912,26448,32767,2677,609,268438473
292,-1596,32767,3776,7690,3804,268438473
-5620,-4144,25204,-24171,-2571,713,268438473
-2208,-7500,17736,-28115,-4991,-2918,268438473
2412,-9816,9132,-25019,-4107,-3459,268438473
3448,-12256,-1360,-14641,-4076,-2661,268438473
4000,-10940,-5140,4406,-1568,427,268438473
1836,-144,32767,24984,307,3548,268438473
-7204,-3136,21028,-30577,-7726,-2130,268438473
-484,-8200,12884,-27935,-5553,-7670,268438473
4396,-11116,836,-22925,-4404,-5669,268438473
5048,-12900,-7296,-5539,-7417,-1182,268438473
4748,-10368,-4340,19172,2780,2262,268438473
2056,-6632,4780,32767,16434,4589,268438473
232,-2520,18472,32767,10290,2562,268438473
2612,1272,31724,25688,2545,4190,268438473
-1632,-2212,29256,-2347,3073,3165,268438473
-1916,-3740,16860,-9135,-2156,769,268438473
-928,-5700,14736,-6068,-1553,-2110,268438473
-272,-6476,13724,-2112,-441,-2395,268438473
640,-6000,13092,-1025,-1752,-1436,268438473
304,-5304,13396,636,-548,351,268438473
-436,-5128,14508,1314,1343,529,268438473
208,-5292,14932,1931,1847,402,268438473
500,-5240,15688,2072,1203,997,268438473
180,-5132,16300,1337,304,1047,268438473
-304,-4816,15892,503,-12,629,268438473
-436,-4836,15792,266,-657,-13,268438473
176,-5056,15384,73,-1235,-260,268438473
416,-5008,15032,326,-1339,491,268438473
512,-4856,14732,949,-786,1169,268438473
148,-5112,14648,1964,-685,1323,268438473
-328,-4504,15304,2831,-795,1166,268438473
-1344,-3864,16476,2232,-679,-151,268438473
-3300,-3172,17740,1815,-510,-3361,268438473
-6100,-2256,20476,-692,-733,-10171,268438473
-3372,-1844,24196,-7740,2208,-20191,268438473
3376,-3860,23232,-16634,7258,-20587,268438473
8876,-6876,18036,-25443,5512,-11894,268438473
10876,-10176,11008,-25551,4608,1768,268438473
9260,-10044,5096,-17682,6399,15016,268438473
4820,-8524,360,-7931,1098,22447,268438473
-1184,-6900,-1024,5502,-10756,22485,268438473
-7680,-60,11552,32767,-18471,425,268438473
-6524,644,21316,31245,-12353,-8938,268438473
-1364,-1628,28184,-7629,786,-25628,268438473
7480,-5400,24916,-17116,1436,-21952,268438473
13444,-6720,21852,-28882,8031,-11293,268438473
15296,-8660,11120,-31379,14880,3812,268438473
12312,-8784,3260,-26987,7971,19093,268438473
5424,-5656,-2176,-16002,-4327,27922,268438473
-2020,-6408,-1868,1727,-12840,25363,268438473
-5128,-5168,2736,19293,-13074,15205,268438473
-7244,-1400,8092,29544,-15600,4952,268438473
-5196,-324,16952,32661,-16155,-6139,268438473
-7500,-456,27896,23386,-6592,-9187,268438473
-6968,-2468,32472,2774,-837,-16484,268438473
-2312,-608,21764,-7681,93,-23975,268438473
4544,-4008,24152,-14796,3791,-23191,268438473
11936,-7760,19188,-19599,8862,-12515,268438473
11792,-9256,12004,-18414,15924,86,268438473
7308,-7360,4508,-14427,9645,10856,268438473
8,-6664,4244,-4639,-3486,13632,268438473
-2324,-6772,8172,5707,-3291,6377,268438473
-1140,-4820,12404,8518,969,1545,268438473
-1368,-4744,12712,6154,-310,-381,268438473
-44,-6092,16088,2746,-2431,-93,268438473
620,-7160,17160,2811,-1621,-200,268438473
-20,-7072,17436,2572,-57,73,268438473
656,-6560,18036,-899,42,652,268438473
-216,-5812,14588,-1373,-491,106,268438473
204,-6232,14184,-663,-1274,5,268438473
784,-6372,14940,-40,-762,358,268438473
472,-6220,15140,-1250,1428,799,268438473
340,-6396,14772,-1848,1619,695,268438473
-416,-6816,15244,-1730,2756,1069,268438473
-1240,-5964,15524,-3183,3373,271,268438473
-2340,-5596,14180,-5045,3113,-2410,268438473
-1500,-6676,13152,-4282,719,-5726,268438473
1760,-7816,14052,-2631,-3615,-5232,268438473
3080,-8576,14012,-560,-1227,-1074,268438473
2452,-8260,14456,1365,1847,2723,268438473
-48,-6400,15032,337,4527,4255,268438473
-3156,-5768,13280,-1849,2800,546,268438473
-2928,-6624,10008,-1226,-2918,-6378,268438473
-68,-7608,8488,5382,-8880,-9764,268438473
3372,-6416,8168,14688,-10745,-11421,268438473
10336,-6736,12576,19703,-12598,-7071,268438473
13668,-6716,17572,20656,-4008,5680,268438473
8468,-4024,20872,17722,3288,18737,268438473
828,-1392,22188,9169,-1120,21863,268438473
-2104,-64,24664,399,-12573,18997,268438473
-3316,-752,26052,-7160,-7342,16889,268438473
-7672,-432,23792,-14351,4187,10045,268438473
-7496,-824,20448,-22771,5864,909,268438473
-3944,-1876,13044,-27174,7009,-7273,268438473
-2528,-4972,3688,-21273,289,-14166,268438473
1916,-8092,4,-4581,-3800,-19941,268438473
8776,-7640,2752,14664,-1486,-19827,268438473
15860,-7632,8256,23785,3480,-9500,268438473
13380,-6192,13804,23626,6153,4871,268438473
7784,-4164,19048,17229,-1843,12867,268438473
3412,-3616,24624,8160,-4566,13402,268438473
1740,-2184,24220,-794,-4243,13707,268438473
-1456,-2464,24080,-7221,-1141,14702,268438473
-6864,-1508,22380,-15266,1830,9759,268438473
-6344,-1736,19524,-21378,5076,-197,268438473
-5420,-2900,12020,-20586,8066,-10228,268438473
-1860,-5952,5508,-8923,2565,-18620,268438473
5876,-6528,4916,3096,-313,-20859,268438473
13180,-8460,6684,10306,-767,-12593,268438473
13568,-8888,10312,13989,832,39,268438473
10496,-7348,14560,11988,-2488,8975,268438473
5916,-4796,17736,7400,-9456,12885,268438473
4816,-4228,20724,3799,-8375,13415,268438473
760,-4588,22644,489,-48,14106,268438473
-2836,-3940,23672,-6261,2954,13364,268438473
-4468,-2020,21792,-14687,3357,10805,268438473
-5876,-3200,17476,-19758,5380,3963,268438473
-5340,-5212,11880,-16660,9662,-5615,268438473
-3936,-5416,6924,-8840,8866,-14877,268438473
1348,-6408,3512,-178,2944,-23522,268438473
10716,-7400,2172,10050,-4335,-21315,268438473
14744,-9304,4960,21167,-222,-11357,268438473
13596,-7460,13972,22220,208,276,268438473
9908,-6480,17668,16334,-8723,6389,268438473
8192,-5352,22780,14149,-2603,11279,268438473
3836,-2980,23724,6737,-212,15060,268438473
2472,-3432,23908,-2642,-5120,18074,268438473
-1184,-1740,23568,-9270,-1690,21734,268438473
-6444,-1524,21412,-17130,4679,16653,268438473
-7920,-1896,17324,-22242,6519,5324,268438473
-4004,-3480,13468,-20968,11848,-3704,268438473
-3212,-4600,8552,-17643,12289,-10075,268438473
-3036,-5448,988,-13409,3013,-20461,268438473
668,-6608,-2784,-584,-2130,-29786,268438473
21080,-8312,11884,19219,9242,-32768,268438473
21620,-9804,3528,32767,3162,-16654,268438473
18680,-6148,17272,32767,-875,8198,268438473
8720,-3008,25280,18450,-2227,16650,268438473
4312,-2968,27152,4903,-2208,16069,268438473
2440,-2500,27904,-3201,-4336,19737,268438473
-3432,1052,26180,-11590,364,22501,268438473
-9868,580,21852,-22012,7311,13992,268438473
-10424,-1540,16588,-26632,11983,-85,268438473
-7524,-3208,8132,-24740,12936,-14568,268438473
-2164,-5228,-416,-17130,2373,-25565,268438473
4864,-7036,-3668,703,-7590,-32471,268438473
14660,-8828,72,18680,-6259,-28770,268438473
22188,-8336,7624,28647,-3173,-13752,268438473
18592,-5508,15540,28785,188,6343,268438473
12648,-3748,23604,22020,-449,14610,268438473
7280,-1968,27272,10786,6691,19747,268438473
2068,-2328,26628,-3903,-3201,20923,268438473
-2240,-636,22256,-11075,6601,21858,268438473
-8108,700,15656,-14500,11210,14742,268438473
-6956,-4116,10264,-13461,4790,960,268438473
1264,-6776,9160,-4328,-579,-6226,268438473
7044,-7612,10592,3656,3345,-2994,268438473
7948,-8300,11228,6818,8447,3333,268438473
5540,-6928,10620,8456,7666,7569,268438473
3648,-5788,14660,8990,3880,9683,268438473
1452,-4160,16784,7854,6386,11695,268438473
-3864,-1844,16736,5205,9497,11498,268438473
-12400,-1136,17344,2311,2764,7031,268438473
-16628,-172,18100,-2222,-3822,-10196,268438473
-10800,-204,15552,-3644,-5630,-28812,268438473
-5228,1828,13832,2059,-2514,-32768,268438473
8480,-56,15432,9817,-2114,-32768,268438473
19400,-5224,17648,6146,1828,-29226,268438473
18864,-7468,16476,1471,7367,-7405,268438473
14416,-7124,15764,-304,6500,5605,268438473
10612,-5980,15168,266,8697,14781,268438473
8052,-4432,15440,-1761,1943,23341,268438473
4084,-1508,15156,-4761,248,29918,268438473
-3532,496,15044,-5695,1593,30281,268438473
-10880,1040,12460,-1908,3784,22285,268438473
-13708,760,14540,1140,-2896,14610,268438473
-15708,376,16164,1975,-3992,-984,268438473
-12116,1112,16480,980,-7185,-15028,268438473
-11812,1444,15252,2342,-7109,-31667,268438473
1000,944,17188,6795,-3506,-32768,268438473
12524,-3076,18292,4578,-2307,-32768,268438473
16444,-5636,17476,547,-513,-18197,268438473
15884,-6768,16620,-228,2570,-3775,268438473
11856,-5088,14924,-1014,3119,7556,268438473
4888,-1112,12916,-830,-746,13428,268438473
1264,-1556,16164,640,-3892,12111,268438473
308,-2296,19988,833,3860,8760,268438473
92,-2528,23392,-5491,3709,9443,268438473
-2060,-1924,23976,-18864,-2681,12290,268438473
-3208,-724,23736,-32768,-2064,8512,268438473
-2776,-3556,13200,-32768,6798,4990,268438473
-1052,-6728,6232,-31320,5005,2703,268438473
-80,-8440,924,-24898,-5868,2021,268438473
760,-9980,-60,-13331,-12096,1624,268438473
1396,-10652,776,5475,-5108,-533,268438473
1628,-8720,2484,21919,-446,-2482,268438473
1388,-6240,4420,32767,-5062,-4337,268438473
4036,-3596,12508,32767,-5612,-4304,268438473
4284,-1380,22240,32767,2888,1791,268438473
-1632,-552,26428,27287,913,993,268438473
-472,-1160,26532,10112,-4492,-1537,268438473
968,-1408,31724,-3871,134,-634,268438473
-988,-1384,27904,-15876,-1030,-1141,268438473
-1224,-1624,25432,-25977,-106,-3907,268438473
1680,-396,22276,-32768,-454,-4590,268438473
4292,-2460,14232,-32768,-1714,-506,268438473
3432,-6856,2864,-32768,-924,2952,268438473
3636,-9656,-4540,-25024,1419,5600,268438473
2240,-11696,-5268,-2198,3229,5396,268438473
112,-9224,-984,11361,3542,3636,268438473
308,-8928,-1892,25447,-641,624,268438473
608,-6584,2904,32767,-2268,-2019,268438473
2236,-5388,10272,32767,-1888,-2185,268438473
-1364,-2904,24832,30891,2202,1877,268438473
4,-172,26804,19000,-596,-204,268438473
168,-272,25232,8708,7303,-627,268438473
-100,-1560,29156,-3680,1215,609,268438473
-2760,-1440,24168,-15596,-6792,83,268438473
-1500,-1916,19460,-19529,-3452,-3260,268438473
368,-3112,15940,-22230,478,-3416,268438473
2268,-4940,11580,-24708,-721,-1552,268438473
2324,-5800,7616,-22101,-2170,1762,268438473
340,-7700,4588,-9085,-1038,903,268438473
-740,-7748,4624,5860,2010,-3011,268438473
360,-6776,8088,16149,70,-7372,268438473
3636,-5572,13312,17233,-5058,-9252,268438473
8784,-6496,16896,13732,-7498,-6701,268438473
12432,-6732,19544,8677,-1291,3327,268438473
10768,-6484,18852,6941,8475,14183,268438473
5396,-5312,15692,7212,5936,21066,268438473
3044,-2236,16772,6361,-1253,23958,268438473
204,-756,18168,3272,4040,26307,268438473
-7508,960,15108,311,4649,23713,268438473
-11840,528,14848,363,-820,14006,268438473
-13964,436,16188,817,-1638,-323,268438473
-10320,-484,16236,1967,-2198,-16578,268438473
-5692,-160,19208,2538,-2212,-25485,268438473
-836,984,17280,3157,-2667,-32768,268438473
5300,-304,16772,3593,-424,-32768,268438473
12688,-4004,17716,3212,-23,-22631,268438473
13572,-7344,16476,-1207,-676,-4549,268438473
9544,-5828,13956,-3168,-2998,9240,268438473
3664,-736,12304,-1334,-5000,13974,268438473
-6596,-520,14512,3522,-6350,5102,268438473
-4048,212,19476,2370,-2708,-10811,268438473
-1184,-784,17476,826,1475,-15879,268438473
4476,-2696,20080,-233,575,-16901,268438473
8232,-4884,20928,-5851,-1187,-7435,268438473
7176,-5896,18536,-13007,801,4448,268438473
4636,-5632,14264,-14645,3750,10449,268438473
2652,-3708,9980,-14475,887,13595,268438473
-740,-3776,7788,-8732,-1417,10900,268438473
-2108,-5224,7956,833,-1967,4784,268438473
-1020,-4016,9936,8521,278,-1601,268438473
828,-3748,11308,11197,-599,-4781,268438473
644,-3456,14136,12934,-4494,-5520,268438473
-796,-1680,16640,13522,-2080,-7371,268438473
-1308,-944,22892,13383,5056,-12226,268438473
1704,-372,28424,5104,3274,-14556,268438473
5080,-1364,25348,-8563,-1935,-11620,268438473
7584,-4076,22352,-15832,3980,-4348,268438473
8464,-4324,19028,-20281,8142,2733,268438473
8456,-4928,14020,-20855,10682,9048,268438473
5796,-5276,10136,-17783,11057,15874,268438473
2100,-4972,7012,-13013,6620,19223,268438473
-616,-4952,6340,-6876,447,18054,268438473
-1424,-6040,6632,969,-6459,14691,268438473
-2084,-5116,7508,8212,-9599,12207,268438473
-2648,-4348,9004,14533,-12228,8525,268438473
-3876,-4452,13916,17987,-14986,4623,268438473
-4904,-1520,16304,19995,-11677,114,268438473
-3828,-184,22552,15955,-9301,-5014,268438473
-5060,356,22492,9579,-3347,-10388,268438473
-4816,960,22680,5792,2037,-16612,268438473
-3212,728,20124,4108,480,-20520,268438473
2096,2320,22452,1328,-1480,-22267,268438473
3736,-996,18964,-4292,-1654,-18797,268438473
3672,-856,18024,-8195,-2180,-18825,268438473
6416,-2516,16820,-12768,-487,-15516,268438473
8132,-3956,14392,-14658,-255,-8744,268438473
7528,-4252,10588,-12081,-2994,-2570,268438473
6172,-5356,9464,-4476,-7302,2552,268438473
4996,-4536,11072,3860,-4067,3886,268438473
3332,-3888,12372,8391,773,3596,268438473
2788,-3060,13884,8465,848,2423,268438473
3396,-3644,17404,9717,6083,1678,268438473
2676,-2532,18260,6782,5796,2883,268438473
1340,-1436,18692,3860,5005,2717,268438473
116,-1520,18684,1080,1341,1338,268438473
476,-1824,17664,-1287,-1175,139,268438473
1524,-2612,16284,-2956,-2570,-109,268438473
1756,-2732,15124,-2410,-426,98,268438473
1704,-2728,14600,-902,277,337,268438473
1840,-2752,15264,1039,556,281,268438473
1836,-2592,16332,1340,-49,336,268438473
2556,-2416,17832,453,-1550,563,268438473
3184,-2512,19992,-1744,-3957,1872,268438473
4660,-3184,23168,-7028,-8416,5435,268438473
5004,-2880,25320,-16660,-7436,10730,268438473
2616,-2736,21504,-25570,-360,12577,268438473
1336,-3904,15528,-26360,8344,9128,268438473
1844,-5688,11020,-22303,10444,7663,268438473
1564,-6900,7632,-17191,4197,9121,268438473
36,-7040,5584,-10657,1260,8125,268438473
-980,-8464,4628,-2401,2081,4527,268438473
-724,-8716,3700,4905,1014,2114,268438473
224,-8316,4248,12244,-1742,580,268438473
1680,-7732,5580,19232,-5881,1552,268438473
2312,-5808,7368,25662,-5189,3338,268438473
1388,-3492,13156,32767,3506,5032,268438473
-48,-812,21520,32767,5481,6499,268438473
-3568,808,25228,19856,2778,3204,268438473
-3680,612,26344,3968,-448,-2,268438473
-1876,152,25752,-3659,-279,-1223,268438473
-1156,-844,25464,-7466,3452,-945,268438473
-2412,-744,26736,-14744,5359,-885,268438473
-4048,720,23408,-25683,7726,-2940,268438473
-3732,124,15460,-32768,7127,-8084,268438473
600,-4472,11540,-32768,-133,-8172,268438473
2776,-7868,2872,-32768,-4862,-5427,268438473
3452,-11380,-3716,-16663,-4416,-1431,268438473
2944,-10568,-3804,5116,-987,1723,268438473
-220,-8952,2296,20334,2715,2565,268438473
1612,-6440,3168,32767,-4729,3370,268438473
3444,-2816,10728,32767,-4504,4680,268438473
2392,-772,20680,32767,2019,9450,268438473
-2516,636,26160,24043,5604,9689,268438473
-5800,-3284,25956,3616,-1196,4476,268438473
-9604,-1164,22544,952,481,1114,268438473
-11296,1608,21728,-3809,-1704,-6343,268438473
-10164,1848,18528,-9297,-9039,-16293,268438473
-7784,1516,16116,-7284,-3530,-26652,268438473
84,-424,13912,-4326,-4240,-31536,268438473
8512,-3284,14896,-2057,-5070,-26935,268438473
12092,-5828,16740,-2197,-658,-14168,268438473
14468,-6424,18276,-6141,2222,-1679,268438473
13136,-5800,17796,-10728,7709,9857,268438473
12412,-5620,15784,-16152,9774,19604,268438473
8176,-3528,10524,-16218,12008,27429,268438473
1204,-3036,7452,-8931,211,31176,268438473
-1576,-2232,8948,126,-9917,31012,268438473
-5956,0,9020,9720,-5920,26508,268438473
-9848,-568,12780,15652,-4689,20130,268438473
-14680,1188,15752,14827,-5559,8932,268438473
-14784,1564,17452,11046,-6194,-4884,268438473
-16496,2352,16352,7730,-5421,-18963,268438473
-12556,2864,19756,5314,-1431,-32768,268438473
-2900,836,23012,5547,3083,-32768,268438473
8960,-2844,22684,468,1263,-29781,268438473
10536,-6444,21588,-9531,2139,-13511,268438473
11548,-6596,18612,-17566,7653,1060,268438473
7832,-4544,11932,-18043,18851,9139,268438473
3648,-5400,9300,-12935,17488,13768,268438473
-2896,-3920,7272,-8852,1496,16252,268438473
-5664,-3176,9268,-4587,-13828,13317,268438473
-5948,-3780,11196,1042,-15876,7782,268438473
-5156,-5068,14304,8496,-8775,2247,268438473
-3744,-2428,16420,11908,-5235,-582,268438473
-3748,-1968,15572,10491,-8763,-2710,268438473
-1852,-2660,17896,6248,-11125,-2833,268438473
288,-3048,17768,5952,-7488,-3334,268438473
156,-2812,19604,6068,-3112,-2635,268438473
324,-2424,20100,3083,-6302,179,268438473
1676,-2912,17900,-755,-12963,1286,268438473
2380,-2156,15980,