ax, ay, az, gx, gy, gz, temp
108,-3648,16404,-1048,-2575,-524,268438473
740,-4148,15592,-994,-1843,-1593,268438473
1136,-4580,14576,442,-1429,-1782,268438473
1068,-4788,15104,2195,-886,-822,268438473
1400,-4548,15536,2719,-793,111,268438473
692,-4204,16624,1381,-676,-36,268438473
528,-4340,16440,-34,45,232,268438473
676,-4060,15768,-640,35,388,268438473
616,-4140,14896,148,-120,416,268438473
676,-4192,15372,1132,-137,480,268438473
576,-4008,15776,1205,-503,466,268438473
668,-4008,16240,612,-375,437,268438473
796,-3988,15664,210,-298,472,268438473
940,-4248,15076,564,-872,673,268438473
792,-4076,14528,2423,-1366,1620,268438473
704,-3744,15396,3300,-2044,2338,268438473
928,-3360,16200,2723,-2456,2091,268438473
896,-3256,16248,2580,-1560,1806,268438473
756,-3020,16712,2095,-448,971,268438473
940,-2344,21740,474,2315,-466,268438473
464,-1384,22980,-10019,6909,-2145,268438473
688,-2220,19644,-22862,5253,-4516,268438473
1948,-4452,14064,-25410,5943,-5278,268438473
2808,-7004,12076,-17485,9769,-2072,268438473
1016,-8580,11152,-10376,14400,2366,268438473
-1084,-8340,9812,-6386,13882,5049,268438473
-2704,-8552,8716,-2369,9286,6109,268438473
-3056,-8284,7220,1245,2433,6137,268438473
-2948,-8960,6868,7193,-8952,6198,268438473
-2372,-6640,7592,16779,-12286,7147,268438473
-2188,-4312,11864,26354,-6987,8184,268438473
-3668,-2244,20192,30914,-1135,6546,268438473
-2856,44,29216,16080,702,1370,268438473
-2464,1052,30172,-8425,2365,-3741,268438473
-2988,-408,23876,-29666,2596,-4702,268438473
-1792,-2336,10384,-32768,-2210,-5688,268438473
-468,-6736,3408,-20456,-11274,-3616,268438473
-376,-11924,1268,-1438,-7928,2044,268438473
180,-7672,6224,17566,-833,4288,268438473
-1348,-6228,11452,28722,-1307,6523,268438473
-1772,-2372,25932,24261,32,3844,268438473
-2036,1076,29776,-539,98,-2643,268438473
-1832,92,27420,-26824,4612,-4439,268438473
-1632,-2560,12180,-32768,3225,-5442,268438473
-724,-8976,1188,-20850,-4944,-5387,268438473
664,-11700,-1140,2599,-6705,-911,268438473
424,-8916,6080,23291,478,4160,268438473
-792,-6404,15344,31221,2655,7008,268438473
-624,-2256,24868,24672,4569,6601,268438473
-2320,420,26692,4492,1716,506,268438473
-3180,648,28092,-18580,9625,-4278,268438473
-2648,-1128,14108,-27696,5527,-7018,268438473
-1216,-6624,3960,-19749,-1407,-5992,268438473
-732,-11472,560,137,-7011,-1294,268438473
-204,-8212,6212,18633,-4180,4485,268438473
-1768,-6748,15620,26710,158,7410,268438473
-3568,-2040,29320,17877,5166,5799,268438473
-2752,-604,27340,-4837,2494,-903,268438473
-3568,-148,20360,-21902,4410,-5575,268438473
-2324,-3136,11120,-22617,2467,-6436,268438473
-448,-8792,3044,-11340,-4402,-4453,268438473
172,-9672,3896,6917,-6725,1735,268438473
-1012,-7616,11428,19257,-3736,6565,268438473
-1772,-4852,20552,20801,592,7742,268438473
-2820,-1564,24624,6952,-274,3084,268438473
-3412,-164,26764,-13955,6154,-3069,268438473
-2980,-1192,17140,-24578,6734,-7061,268438473
-1316,-5256,8580,-20670,4922,-7323,268438473
-424,-10508,1912,-8739,-1811,-4291,268438473
-248,-10512,3344,8502,-7328,2609,268438473
-1324,-7832,10780,20205,-5299,7292,268438473
-636,-7016,11604,23763,-6399,9745,268438473
-4644,-2732,26332,12430,-1873,5101,268438473
-3964,-776,29524,-6793,7309,-1522,268438473
-3652,-1396,19204,-20982,8469,-5784,268438473
-1800,-4012,8712,-20179,3766,-7519,268438473
-968,-10224,1912,-7116,-4419,-4392,268438473
-720,-9208,4432,11123,-5828,2532,268438473
-1944,-7448,12476,21375,-3642,6458,268438473
-3104,-5188,20836,20907,-106,7063,268438473
-2944,-2296,19584,11220,-2432,3292,268438473
-3376,-1448,21104,-631,1955,-956,268438473
-2776,-2644,16620,-6684,1434,-2593,268438473
-1976,-3720,12608,-5129,-1934,-2015,268438473
-2112,-4784,12516,262,-2813,-421,268438473
-1916,-4860,14696,3662,-2013,258,268438473
-1684,-4612,16488,2656,-1107,348,268438473
-1588,-4388,16288,467,-744,388,268438473
-1832,-4308,15292,-97,-143,710,268438473
-2212,-4192,14672,667,-542,789,268438473
-2392,-4180,15080,1546,-855,792,268438473
-2092,-3924,15800,1539,-559,269,268438473
-1764,-4008,15856,1370,-43,14,268438473
-1856,-3820,15156,1519,-126,299,268438473
-2048,-3784,15412,1705,-763,594,268438473
-2208,-3600,15968,1505,-853,601,268438473
-2296,-3400,15868,509,-1214,-18,268438473
-2164,-3576,15420,199,-2329,-73,268438473
-1948,-3520,15648,493,-1768,-385,268438473
-1580,-3536,15648,410,-1950,-672,268438473
-1388,-3672,15512,189,-2020,-542,268438473
-1292,-3700,15464,387,-2289,-110,268438473
-1328,-3620,15588,704,-1951,105,268438473
-1196,-3560,15772,776,-1735,159,268438473
-1112,-3484,15696,545,-1783,41,268438473
-1000,-3456,15604,743,-1493,-58,268438473
-1028,-3476,15500,1236,-1779,41,268438473
-828,-3268,15252,1912,-2033,133,268438473
-808,-3208,15376,2734,-2735,367,268438473
-636,-2988,15752,3331,-2634,477,268438473
-672,-2840,16352,3127,-2404,467,268438473
-468,-2564,16268,2320,-2320,117,268438473
-476,-2556,16088,2008,-2236,87,268438473
-160,-2536,16136,1758,-1729,87,268438473
-244,-2388,16276,1541,-1753,197,268438473
-24,-2232,16044,1094,-1535,192,268438473
-44,-2136,16068,959,-1439,137,268438473
80,-2048,16184,1049,-1158,21,268438473
-28,-2088,16436,940,-1174,29,268438473
144,-2052,16400,357,-706,-156,268438473
148,-2096,16156,124,-374,-215,268438473
240,-2076,16276,-6,-85,-293,268438473
380,-2096,16028,-18,-343,-221,268438473
56,-2216,15744,454,-146,19,268438473
-52,-2096,16184,406,-387,64,268438473
52,-1892,16240,206,-354,-42,268438473
192,-2016,16108,-198,-204,-171,268438473
128,-2048,15768,86,-534,-56,268438473
72,-2056,15384,836,-535,76,268438473
96,-2096,16096,1337,-575,16,268438473
36,-1872,16420,1440,-485,-132,268438473
-28,-1952,15940,1238,-1160,-189,268438473
136,-1700,15976,1319,-657,-22,268438473
-168,-1448,15696,2073,2,-138,268438473
112,-1748,15668,2465,555,-804,268438473
48,-1252,15984,2560,-1138,-844,268438473
208,-1172,16148,2412,-1560,-825,268438473
492,-1368,16100,2227,-1182,-1104,268438473
976,-1132,16300,2061,-1214,-1091,268438473
864,-1192,16164,2253,-999,-375,268438473
956,-944,16572,1767,-1082,72,268438473
900,-636,16508,1440,-681,410,268438473
652,-640,16120,1444,-472,673,268438473
656,-392,16460,1316,-440,486,268438473
632,-440,16396,1531,49,321,268438473
612,-304,16376,1231,336,123,268438473
704,-72,16292,866,399,108,268438473
712,-80,16488,516,570,84,268438473
436,-152,16048,1131,905,204,268438473
320,-348,16048,1432,579,319,268438473
148,-96,16540,1202,517,182,268438473
264,-92,16380,928,949,11,268438473
292,24,16120,672,655,-48,268438473
208,116,16068,817,697,15,268438473
448,104,16224,1006,904,-41,268438473
440,44,16096,1172,915,263,268438473
188,848,16288,1569,1717,74,268438473
-316,-72,16240,1476,1651,410,268438473
-164,436,16176,884,1026,397,268438473
-396,496,16332,734,757,342,268438473
-468,756,16220,213,233,-19,268438473
-264,552,16168,189,242,-191,268438473
-404,376,16096,106,-37,-54,268438473
-316,320,16204,-11,-369,-1,268438473
-300,512,16168,-101,-351,-13,268438473
-216,480,16256,-82,-192,-72,268438473
-84,460,16172,-126,-342,-63,268438473
-292,480,16288,-81,-333,-8,268438473
-228,364,16176,-164,-350,-43,268438473
-376,356,16300,-673,-773,-19,268438473
-368,416,16188,-1321,-1690,71,268438473
-368,232,16732,-2257,-2621,30,268438473
-152,120,17192,-3371,-2108,182,268438473
-524,-136,18352,-5935,-1728,709,268438473
636,300,18656,-11355,-24,-130,268438473
776,-424,17028,-13534,-1050,-651,268438473
-72,-2156,15480,-11577,2120,-48,268438473
-228,-2272,16184,-10546,4647,-332,268438473
804,-2632,16368,-12251,4582,-2478,268438473
1020,-2864,15284,-11536,2267,-3114,268438473
-188,-4140,14256,-7094,3395,-1978,268438473
-1176,-4384,15628,-3771,5136,-1491,268438473
-1756,-4196,16652,-4596,5000,-1905,268438473
-1560,-4220,16708,-9873,804,-2614,268438473
-1428,-4912,16296,-14246,-4020,-2432,268438473
-804,-5740,14744,-15451,-5840,-1524,268438473
-564,-6456,13568,-14837,-6914,-524,268438473
-448,-8020,15184,-12462,-4619,-937,268438473
524,-7552,15204,-15060,-3071,-1511,268438473
748,-8440,13044,-16939,-2898,-1153,268438473
808,-9256,12012,-15793,-2534,-956,268438473
836,-10252,12328,-14287,-1808,-1149,268438473
912,-10932,11560,-14611,-1563,-673,268438473
992,-12032,10040,-14507,-1278,166,268438473
644,-11284,7068,-12102,-2296,1359,268438473
-244,-13224,5312,-5390,-1143,1131,268438473
-796,-13432,3104,3883,201,479,268438473
-92,-12732,3152,13982,971,-240,268438473
792,-11368,6196,25776,4050,-608,268438473
68,-9768,13664,31291,6598,-694,268438473
720,-7360,16592,23319,2753,-1856,268438473
1036,-7488,18328,13449,1980,182,268438473
-88,-7276,17116,10205,4152,1199,268438473
-96,-6796,14860,9483,5379,1763,268438473
-200,-6560,14260,8774,3130,1390,268438473
-468,-6644,13544,8700,1308,964,268438473
-856,-6264,12904,10539,-294,849,268438473
-636,-5664,13904,14132,11,1534,268438473
-568,-4760,16176,15777,2126,2585,268438473
-456,-3560,17652,13784,3279,2578,268438473
-1248,-2632,17768,10638,4405,2545,268438473
-1568,-2000,16512,8067,5771,1600,268438473
-2200,-1468,15664,7672,4717,1438,268438473
-2888,-1608,14900,7276,3789,1126,268438473
-2840,208,17832,5738,918,742,268438473
-2376,-920,16684,3211,-1590,486,268438473
-2796,-1268,17000,1388,-1721,133,268438473
-2100,-984,16184,436,-2165,178,268438473
-2092,-1304,16720,-207,-1454,164,268438473
-1528,-1084,16260,-890,-333,-210,268438473
-1708,-1164,15736,-709,-258,-9,268438473
-2036,-992,15700,-31,-164,102,268438473
-2128,-908,15840,370,-442,26,268438473
-2124,-1124,16044,-24,-625,-33,268438473
-1824,-1164,15988,-281,-800,36,268438473
-1760,-1148,15924,-106,-765,123,268438473
-1920,-1196,15968,-73,-874,119,268438473
-1776,-1148,15988,-228,-891,21,268438473
-1740,-1236,16064,-207,-958,128,268438473
-1760,-1240,16084,-410,-905,177,268438473
-2100,-1364,17632,-1211,-1961,-60,268438473
-2604,-472,21164,-5909,-2135,-1819,268438473
-2528,-376,25856,-19280,2811,-4060,268438473
-1588,1764,25344,-32768,-4877,-7371,268438473
-1344,-1300,14752,-32768,-6241,-6548,268438473
952,-4436,7376,-32768,-2725,-933,268438473
-1180,-8968,5452,-25734,-4599,2899,268438473
-1212,-11564,3392,-12995,-6141,1994,268438473
-824,-12280,2832,1742,-3732,789,268438473
-880,-11040,1952,16734,-1863,178,268438473
-228,-9172,4336,32065,3223,274,268438473
904,-5248,10796,32767,11954,1998,268438473
-1684,-384,20692,32767,8601,5969,268438473
-3172,2460,29376,32767,2695,3871,268438473
-1884,1000,24632,8719,1794,-788,268438473
-2308,432,20608,-6087,6363,-4037,268438473
-2244,-472,14388,-9252,3878,-3611,268438473
-2156,-2052,11588,-4848,892,-1425,268438473
-2396,-2636,13100,1446,-388,858,268438473
-2448,-2240,15088,4466,-921,1111,268438473
-2464,-1820,17052,3463,-700,476,268438473
-2360,-1312,17424,822,-423,-222,268438473
-2276,-1452,16616,-1437,-78,-295,268438473
-2352,-1408,15540,-1848,-410,-58,268438473
-2212,-1576,15204,-760,-1092,55,268438473
-2328,-1768,15488,332,-1246,-26,268438473
-2152,-1744,16028,467,-1369,-86,268438473
-1924,-1736,15916,-93,-1269,-11,268438473
-1816,-1776,16152,-487,-1310,233,268438473
-1756,-1544,15936,-627,-901,177,268438473
-1840,-1704,15988,-504,-862,-24,268438473
-1772,-1860,15636,-187,-625,-77,268438473
-1868,-1812,16032,179,-568,86,268438473
-1820,-1756,16164,50,-520,223,268438473
-1784,-1772,15992,-252,-451,154,268438473
-1852,-1828,15948,-284,-815,139,268438473
-1760,-1748,15716,-133,-616,195,268438473
-1720,-1648,15876,14,-616,216,268438473
-1576,-1752,16088,-155,-663,246,268438473
-1640,-1760,16000,-131,-697,285,268438473
-1880,-1880,15928,0,-706,242,268438473
-1632,-1700,15996,22,-501,112,268438473
-1504,-1732,16088,-141,-296,-123,268438473
-1536,-1696,15920,-93,-412,-64,268438473
-1428,-1776,15840,72,-281,102,268438473
-1680,-1744,16032,140,-304,118,268438473
-1540,-1724,16044,-54,-317,-16,268438473
-1592,-1784,15884,-132,-248,-47,268438473
-1664,-1884,15924,-73,-261,-65,268438473
-1692,-1656,15972,-125,-318,-123,268438473
-1976,-1280,17984,-1017,-588,-738,268438473
-3736,716,21368,-5838,-1523,-3016,268438473
-4428,788,23012,-16191,2404,-11035,268438473
-3816,-220,20980,-20885,6536,-19669,268438473
-2112,-3776,16904,-18212,9042,-20026,268438473
1248,-7680,18124,-14106,3054,-12647,268438473
4128,-9880,15916,-13740,66,-1924,268438473
4104,-9360,12544,-10921,3430,8947,268438473
2628,-7040,8040,-7892,8351,15316,268438473
28,-6112,4092,-5032,4937,18081,268438473
-2716,-4716,3092,142,-6174,19695,268438473
-5088,-4176,3464,7660,-12863,16472,268438473
-7808,-3604,4292,18145,-18760,8051,268438473
-6784,-452,11232,29202,-18684,-767,268438473
-7356,1128,20408,27697,-14301,-7652,268438473
-7736,1364,27600,13261,-8208,-15116,268438473
-5824,720,29440,-3400,-2788,-20959,268438473
-3520,1236,26324,-10432,-303,-26996,268438473
4460,-1752,25144,-13371,3562,-26821,268438473
9872,-5808,21552,-21139,5691,-19351,268438473
12648,-7416,17012,-25069,10768,-6447,268438473
9928,-7996,10400,-22138,16356,6449,268438473
8328,-7852,3216,-14861,9253,14289,268438473
5432,-7856,3800,-10194,844,22431,268438473
1628,-5740,4092,-5989,-9583,25750,268438473
-1628,-5924,4980,-99,-11430,23541,268438473
-3852,-4928,4020,9157,-13130,19545,268438473
-6328,-1208,7044,21260,-16329,14324,268438473
-9776,1612,14904,29263,-25324,2268,268438473
-10220,2488,25208,24978,-21787,-10801,268438473
-6948,1708,29324,10489,-9190,-20557,268438473
-560,80,27440,921,-442,-22069,268438473
-392,-808,27252,-3117,2799,-22689,268438473
800,-1352,23644,-6844,5149,-23485,268438473
6584,-4216,20644,-13257,4886,-16954,268438473
8808,-6656,17528,-19487,6328,-6998,268438473
8448,-6360,15400,-23233,10524,3383,268438473
6964,-6904,10864,-22062,13904,11375,268438473
5328,-8192,5196,-15713,10852,17508,268438473
2672,-6536,2428,-8627,-2065,22602,268438473
-44,-5208,3448,665,-14943,23517,268438473
1016,-4800,4820,10372,-17074,20122,268438473
-8348,-2048,5568,22332,-16600,10840,268438473
-10824,2448,12276,31575,-17810,-4333,268438473
-6600,1576,24788,26270,-13378,-19218,268438473
-752,-224,30412,9811,-4006,-23722,268438473
332,-1744,30160,-3058,6392,-19723,268438473
-2540,-2516,26528,-7758,9393,-20252,268438473
4412,-3772,22784,-12350,10448,-15987,268438473
7480,-5824,18412,-20459,8779,-5899,268438473
7168,-6472,12260,-22985,8588,5384,268438473
4312,-5068,6804,-17916,7933,13245,268438473
700,-5472,4572,-6619,4311,15506,268438473
-948,-5300,7844,5841,1707,12336,268438473
-3132,-4572,10912,11478,990,8315,268438473
-4768,-4032,13772,11358,-547,4359,268438473
-4576,-3800,16048,7355,-5086,1421,268438473
-4216,-4204,18100,3583,-5240,923,268438473
-3976,-4096,18836,2895,-453,1107,268438473
-3900,-4272,18868,1672,2615,1323,268438473
-3972,-3664,17484,-294,2029,1068,268438473
-3596,-3380,16148,-2133,-477,57,268438473
-2868,-3500,15124,-2408,-1993,-1268,268438473
-2160,-3928,14284,-1345,-1549,-2019,268438473
-1464,-4592,14308,-265,-1248,-1712,268438473
-1200,-4812,14424,495,-1279,-819,268438473
-1312,-4936,14676,900,-449,238,268438473
-1752,-4856,14684,1068,903,999,268438473
-2200,-4564,14192,1440,1145,1170,268438473
-2268,-4240,14016,3368,738,1309,268438473
-2368,-3420,15956,6225,-467,2102,268438473
-4104,-2684,22964,3736,-763,2670,268438473
-7920,-724,30204,-16581,-3139,-1413,268438473
-8756,1040,26612,-32768,-7114,-10965,268438473
-3012,-1928,16896,-32768,-9479,-15855,268438473
2504,-8548,7688,-32768,-9630,-11529,268438473
4124,-11168,-484,-28816,-9370,-5375,268438473
4228,-12640,-3868,-9285,-4155,-449,268438473
4496,-11212,-4240,9134,3485,3762,268438473
3480,-9980,-1900,24836,9892,6050,268438473
2080,-8480,1280,32767,12572,7983,268438473
16,-4340,7396,32767,9548,9477,268438473
-1764,464,17632,32767,-494,9807,268438473
-4236,2272,29428,32767,-11173,10314,268438473
-6844,896,32767,502,-8652,5946,268438473
-7236,-292,32767,-24435,1490,-2244,268438473
-4532,-1760,27476,-29713,4315,-6799,268438473
-2572,-2888,23716,-32768,6119,-7085,268438473
-100,-3364,16936,-32768,5362,-4802,268438473
824,-4468,7192,-32768,277,-1106,268438473
200,-7716,-2184,-32768,-5291,336,268438473
1548,-10292,-9184,-18808,-13509,-193,268438473
2960,-12712,-8448,587,-12941,1358,268438473
2704,-11320,-5604,23752,3057,2124,268438473
1184,-9668,-668,32767,14884,2662,268438473
760,-5152,6796,32767,13352,6590,268438473
-6040,-2304,16124,32767,-3073,13320,268438473
-9100,676,31052,31097,2362,10721,268438473
-11496,1212,32767,5840,2891,1841,268438473
-9548,-1656,28156,-10666,305,-5076,268438473
-6248,-3876,22100,-11386,915,-8773,268438473
-1924,-5720,17456,-9367,2781,-6543,268438473
-244,-6096,12312,-8650,3631,-3135,268438473
288,-6604,8672,-6451,2176,-624,268438473
200,-6280,7740,-1685,274,845,268438473
-372,-6172,8708,4239,-116,2218,268438473
-1360,-6240,11064,9139,918,3367,268438473
-2688,-5644,14204,10113,1184,4315,268438473
-4140,-5232,16612,7264,1796,4910,268438473
-5404,-4152,17608,3655,1772,4519,268438473
-5856,-3852,17400,828,364,3583,268438473
-5668,-3552,17080,-152,67,2330,268438473
-5376,-3400,16040,-192,519,523,268438473
-5092,-3612,15132,-690,-179,-1093,268438473
-4148,-4152,14456,-1453,-1824,-1953,268438473
-3428,-4500,14172,-1339,-2583,-2026,268438473
-2876,-4912,14348,-719,-1711,-1309,268438473
-2856,-4912,14356,357,-577,-276,268438473
-3248,-4700,14868,1148,214,297,268438473
-3608,-4540,14988,1019,163,290,268438473
-3540,-4424,15224,997,363,65,268438473
-3840,-4272,15276,835,220,45,268438473
-3924,-4288,15540,799,48,-73,268438473
-3808,-4096,15396,741,36,43,268438473
-3960,-4204,15128,316,104,127,268438473
-3920,-4268,14928,237,159,10,268438473
-3696,-4208,14692,380,41,-57,268438473
-3656,-4288,14732,788,178,18,268438473
-3672,-4216,14596,1074,917,71,268438473
-3864,-4340,14444,1650,1520,189,268438473
-3772,-4092,14432,2257,2079,569,268438473
-3872,-3840,14508,2983,1853,1137,268438473
-4304,-3488,15048,2982,127,1493,268438473
-4420,-3208,15760,2288,-1061,1236,268438473
-4536,-3188,16056,1539,-597,658,268438473
-4488,-3232,16132,588,-368,41,268438473
-4352,-3232,15892,-343,-924,-87,268438473
-4160,-3216,15664,-796,-1336,71,268438473
-4084,-3360,15196,-755,-336,-33,268438473
-4052,-3416,14400,-579,141,-195,268438473
-3764,-3732,13808,-560,-508,-291,268438473
-3616,-3764,13452,-157,-622,-174,268438473
-3788,-3836,13560,556,-410,53,268438473
-4140,-3412,14156,1740,-43,294,268438473
-4624,-3112,14980,2408,-365,-47,268438473
-4712,-2656,16700,1809,-1595,-664,268438473
-4436,-2232,19372,-1054,-4359,-199,268438473
-5164,-1564,23392,-7735,-13800,3447,268438473
-7180,-1332,24828,-22549,-32768,7543,268438473
-5088,-2464,22584,-32768,-32768,5140,268438473
180,-4296,16400,-32768,-32768,1260,268438473
3308,-6728,9104,-32768,-32768,-58,268438473
3796,-7328,-104,-32768,-32768,-204,268438473
3284,-8572,-5404,-32768,-32768,-4300,268438473
4080,-9740,-6624,-32768,-32768,-11163,268438473
5876,-4140,-3436,-32768,-32768,-15605,268438473
3260,-6604,-10652,-32768,-32768,-9647,268438473
1520,-5240,-13852,-32768,-19987,-8593,268438473
3040,-6660,-17276,-21233,-12299,-9604,268438473
6228,-3652,-18564,-10433,-1283,-9682,268438473
8704,-2864,-21032,-6454,-1438,-5139,268438473
8524,-2200,-21652,-4657,-1573,-600,268438473
8188,-2256,-21396,-2560,-726,321,268438473
7164,-2336,-20544,317,-82,428,268438473
6268,-2388,-18488,2932,2397,-297,268438473
5220,-2448,-16440,3295,3984,-963,268438473
5356,-3020,-15488,2262,4063,-746,268438473
5988,-3528,-15424,1242,3507,-353,268438473
6372,-4072,-15732,624,2669,127,268438473
6920,-4092,-16236,696,2043,103,268438473
7132,-4500,-16404,1244,1806,-182,268438473
7200,-4468,-16224,1349,1048,-264,268438473
7048,-4208,-15548,839,480,-347,268438473
6808,-4164,-15588,912,1143,-245,268438473
6712,-3900,-15524,547,1125,-182,268438473
6664,-3772,-15740,-23,651,-74,268438473
6736,-3652,-15828,-301,863,-74,268438473
6792,-3676,-16180,-336,454,-39,268438473
7028,-3872,-16428,-247,-66,-87,268438473
6992,-3868,-16368,410,33,-73,268438473
6912,-3952,-16044,1158,620,-163,268438473
6932,-3984,-15448,1121,1024,-65,268438473
7112,-4068,-15416,343,592,-205,268438473
7256,-4156,-15552,-122,54,-96,268438473
7336,-4152,-15680,-226,-290,21,268438473
7172,-4156,-15880,-57,78,21,268438473
7036,-4064,-15632,42,286,-77,268438473
7072,-3884,-16120,290,672,-163,268438473
7216,-4088,-15780,247,119,-293,268438473
7288,-4028,-15756,-77,-32,-81,268438473
6964,-3820,-15816,-172,60,105,268438473
6860,-3980,-15824,-32,254,22,268438473
7336,-4012,-15928,225,361,-154,268438473
7400,-4060,-15756,359,310,-83,268438473
7304,-4036,-15676,422,351,-163,268438473
7376,-4176,-15600,399,535,-90,268438473
7488,-4204,-15440,197,400,-54,268438473
7408,-4156,-15688,4,393,101,268438473
7552,-4200,-15644,179,214,-17,268438473
7364,-4132,-15820,626,995,14,268438473
7444,-4032,-15652,836,908,-276,268438473
7640,-4028,-15516,748,1019,-227,268438473
7612,-4324,-15348,407,555,-129,268438473
7476,-4204,-15356,347,766,-34,268438473
7604,-4196,-15368,325,574,-143,268438473
7732,-4312,-15396,211,379,-239,268438473
7844,-4432,-15232,-59,-51,-58,268438473
7620,-4304,-15404,40,134,47,268438473
7768,-4388,-15312,315,435,-155,268438473
7792,-4292,-15256,762,1603,-89,268438473
7876,-4308,-15428,1915,4470,-219,268438473
8848,-4936,-14728,5037,13412,-55,268438473
10200,-5004,-14872,9869,29362,1876,268438473
13308,-5492,-15152,14718,32767,5499,268438473
15344,-7476,-13520,19191,32767,8049,268438473
16504,-7752,-11828,24094,32767,12109,268438473
15348,-8488,-8220,27491,32767,15866,268438473
13640,-9124,-5428,31830,32767,16989,268438473
11608,-9160,-4324,32767,32767,18181,268438473
8740,-6856,156,32767,32767,16479,268438473
4168,-6864,1856,32767,32767,14997,268438473
28,-5700,4940,32767,32767,11106,268438473
-2664,-4984,9892,26534,32767,8495,268438473
-3148,-3884,12344,21028,32767,6513,268438473
-5004,-3420,13300,17450,25824,5255,268438473
-5024,-1964,14060,15604,11515,5688,268438473
-6048,-3608,17832,6498,-6657,5590,268438473
-7208,-3796,32767,8494,-6044,3903,268438473
-6880,3700,22696,-530,90,-3705,268438473
-3828,-1264,17112,-11151,-8693,-6267,268438473
-1512,-3032,12624,-12175,-8478,-5187,268438473
-848,-5428,10588,-4442,-6031,-2787,268438473
-384,-4632,11880,2897,-2817,-518,268438473
-816,-4368,14544,7112,-652,1357,268438473
-1728,-3504,17388,5834,-553,2438,268438473
-2528,-2588,18588,2444,311,2152,268438473
-2808,-2268,17272,-969,1310,562,268438473
-2920,-2712,15668,-2302,402,-841,268438473
-2268,-3136,14676,-1475,-325,-1127,268438473
-2220,-3396,14600,314,-601,-533,268438473
-2092,-3304,15232,1329,-213,175,268438473
-2168,-3100,16024,1130,-2,522,268438473
-2252,-2880,16296,394,-107,354,268438473
-2376,-2728,16020,-128,403,-146,268438473
-2356,-2896,15656,-138,2,-324,268438473
-2288,-3128,15436,-71,-286,-217,268438473
-2376,-3116,15636,193,77,105,268438473
-2340,-2904,15724,375,243,210,268438473
-2456,-2972,15684,311,177,177,268438473
-2444,-2980,15816,208,66,57,268438473
-2440,-2952,15512,26,-8,15,268438473
-2336,-2896,15676,110,22,-30,268438473
-2412,-2952,15528,256,104,-7,268438473
-2392,-2940,15644,323,122,42,268438473
-2520,-2828,15712,324,305,-5,268438473
-2580,-2836,15812,163,157,53,268438473
-2540,-2756,15588,97,36,108,268438473
-2580,-2896,15652,68,-104,-15,268438473
-2524,-2812,15628,109,-207,-143,268438473
-2428,-2896,15752,135,7,-279,268438473
-2332,-3052,15536,112,16,-151,268438473
-2424,-2908,15660,195,16,7,268438473
-2620,-2840,15584,476,-160,-32,268438473
-2636,-2788,15940,416,80,-6,268438473
-2584,-2652,15860,219,-33,62,268438473
-2504,-2592,15684,72,185,-18,268438473
-2508,-2692,15600,-11,-154,19,268438473
-2696,-2764,15444,156,-71,89,268438473
-2632,-2720,15568,211,-196,6,268438473
-2588,-2644,15780,174,-440,-10,268438473
-2416,-2660,15708,193,-420,46,268438473
-2364,-2536,15612,162,-927,217,268438473
-2372,-2440,15864,77,-2742,653,268438473
-2436,-2512,15812,-667,-6388,1157,268438473
-2396,-2424,15864,-1249,-8301,1287,268438473
-2148,-2776,15740,-1203,-6376,770,268438473
-1760,-2936,15712,-893,-3262,-170,268438473
-1292,-3192,15728,-169,479,-758,268438473
-860,-3064,15644,-178,-123,-668,268438473
-416,-2720,15896,17,-859,-114,268438473
-876,-2856,15744,337,41,101,268438473
-1364,-2812,16048,191,220,7,268438473
-1332,-2876,16120,111,555,-197,268438473
-1320,-2800,15744,60,522,-311,268438473
-1228,-2832,15800,96,505,-223,268438473
-1232,-2892,15836,324,547,23,268438473
-1336,-2760,15848,319,440,99,268438473
-1428,-2880,15960,246,249,181,268438473
-1500,-2580,15936,161,34,59,268438473
-1380,-2752,15904,51,-73,17,268438473
-1380,-2708,15888,145,-289,71,268438473
-1488,-2576,15936,204,-371,130,268438473
-1468,-2608,15784,120,-1069,85,268438473
-1556,-2732,15768,56,-793,32,268438473
-1464,-2716,15836,-139,-826,-20,268438473
-1408,-2588,15784,-212,-1450,-33,268438473
-1316,-2768,15804,-337,-1596,-6,268438473
-1124,-2836,15824,-358,-1719,81,268438473
-1116,-2708,15944,-366,-1914,81,268438473
-1032,-2752,15976,-480,-2412,60,268438473
-1480,-3068,15756,-709,-3428,239,268438473
-764,-2300,16588,-751,-3603,533,268438473
-404,-2528,16772,-1404,-7742,759,268438473
312,-2812,17236,-2578,-10723,710,268438473
920,-2952,17792,-2657,-9738,785,268438473
1208,-3096,17636,-2232,-4466,416,268438473
964,-3236,16652,-2004,-266,-351,268438473
1472,-3328,15972,-2438,-1181,-317,268438473
1512,-3404,15772,-3022,-5371,638,268438473
1516,-3348,16084,-4916,-14325,1946,268438473
1864,-3736,16768,-7841,-24149,2830,268438473
3772,-4180,16900,-11253,-32768,3589,268438473
5272,-4868,16268,-16983,-32768,5427,268438473
7928,-5324,12580,-25889,-32768,6986,268438473
11440,-6124,7360,-32768,-32768,7611,268438473
13868,-8176,1380,-32768,-32768,4485,268438473
14860,-11356,-980,-32768,-32768,-646,268438473
11808,-10632,-2424,-19395,-32768,-2164,268438473
6348,-7320,-8372,-2792,-3889,1575,268438473
4420,-6016,-10224,-1464,-11024,-4163,268438473
8996,-7884,-8396,-9278,-21507,-8916,268438473
10812,-8672,-10668,-11813,-11987,-1389,268438473
6848,-5776,-11944,-10913,-8825,811,268438473
8476,-5168,-14748,-9208,-6768,-4560,268438473
10972,-5808,-15324,-5910,-4368,-8188,268438473
13520,-6692,-15252,-2967,-2092,-5645,268438473
14532,-6988,-14832,-987,524,400,268438473
12380,-5484,-14596,911,1618,1772,268438473
11544,-5284,-13412,1115,494,-127,268438473
11504,-5720,-12108,1199,1581,-278,268438473
10880,-5584,-12116,751,1336,-311,268438473
11064,-5764,-12104,305,945,-412,268438473
11284,-5868,-12192,-159,295,372,268438473
11232,-5960,-12772,-420,-185,566,268438473
11160,-5852,-12980,271,419,809,268438473
11048,-5668,-12728,966,613,870,268438473
10984,-5884,-12716,749,488,1210,268438473
10580,-5824,-12648,702,328,1181,268438473
10272,-5804,-12528,444,559,860,268438473
10192,-5848,-12508,292,611,193,268438473
10548,-5992,-12720,784,1389,189,268438473
10680,-5992,-12304,894,1017,20,268438473
11072,-6216,-12352,1073,2276,424,268438473
11436,-6612,-12248,2149,6376,1494,268438473
12484,-7280,-11608,5404,19300,4396,268438473
14728,-7768,-10968,11028,32767,8616,268438473
15340,-8132,-9068,15708,32767,11738,268438473
17180,-9336,-6508,25332,32767,12469,268438473
18080,-10216,-3236,32767,32767,13710,268438473
2628,-4980,-16004,32767,32767,13717,268438473
4024,-6152,1984,32767,32767,8132,268438473
-4832,-2324,10424,27190,32767,3908,268438473
-10112,-1664,13276,16048,32767,-2502,268438473
-6320,-2472,17188,8913,15215,-4243,268438473
-3936,-3848,18008,3489,4250,135,268438473
-4884,-3900,16428,1580,1374,1657,268438473
-3820,-5380,16780,6633,1015,2582,268438473
-3728,-2124,22632,894,3726,316,268438473
-3348,-2356,15640,-4484,64,364,268438473
-3656,-2152,15308,-5843,-772,-352,268438473
-3488,-3960,14424,-3902,-443,-126,268438473
-3516,-4400,14668,-2093,1052,425,268438473
-4236,-4256,13932,-1065,2278,657,268438473
-4624,-4308,13920,152,1980,1563,268438473
-5148,-4064,14076,1119,901,2282,268438473
-5732,-3684,14552,1268,-885,1979,268438473
-5560,-3488,15024,1495,-1037,952,268438473
-4996,-3528,15204,1590,-1053,-14,268438473
-4724,-3580,15320,943,-1811,-745,268438473
-4392,-3608,15388,28,-2664,-909,268438473
-4060,-3744,14920,-441,-2135,-706,268438473
-3912,-3740,15208,-393,-1625,-495,268438473
-3836,-3756,14900,-197,-1365,-244,268438473
-3956,-3800,14880,243,-1178,-255,268438473
-4020,-3752,14740,463,-1136,-325,268438473
-3812,-3648,15216,615,-585,-345,268438473
-3636,-3664,15196,453,-636,-173,268438473
-3748,-3740,15160,281,-647,208,268438473
-3792,-3720,15100,303,-245,305,268438473
-3848,-3552,15128,416,-129,130,268438473
-3956,-3644,15036,601,-148,-17,268438473
-3948,-3500,14864,957,-481,-12,268438473
-3980,-3440,14920,1341,-939,188,268438473
-3912,-3508,15180,1462,-803,188,268438473
-3912,-3256,15196,1340,-871,72,268438473
-3872,-3152,15204,1452,-1404,-48,268438473
-3816,-3020,14784,2104,-2430,-94,268438473
-3740,-2684,14540,3290,-4029,49,268438473
-3576,-2740,14388,4346,-7112,52,268438473
-3440,-1924,14264,5538,-13463,-241,268438473
-3360,-1232,15344,6834,-20096,-637,268438473
-556,944,20000,7222,-32039,-1920,268438473
3684,-1240,32767,-3829,-32768,-1017,268438473
5324,-1128,32767,-32768,-14123,1966,268438473
4580,1280,22376,-32768,13374,673,268438473
6512,-1656,9812,-32768,32065,-3774,268438473
9872,-7868,-1724,-32768,28251,6044,268438473
3276,-9700,-5380,-28641,-3221,17321,268438473
1276,-7452,-4452,-12935,-6928,24650,268438473
-1360,-6580,-4664,5359,-625,27655,268438473
-8304,-6788,-620,24249,914,26625,268438473
-9508,-5088,4404,32767,-2595,15470,268438473
-12960,-1100,14196,32767,-10509,4788,268438473
-10368,956,24684,30997,-3566,-6386,268438473
-6932,2460,29448,14292,-6708,-14709,268438473
-4624,-796,24836,-3915,-7101,-19779,268438473
1076,-4384,22692,-12542,-5405,-18784,268438473
4144,-6536,17336,-14161,75,-14659,268438473
5328,-8048,15520,-10103,2771,-9350,268438473
1752,-7844,9696,-102,1153,-6717,268438473
4776,-6932,12992,2784,2203,-1165,268438473
1192,-6052,14912,3040,4574,181,268438473
1864,-7660,15208,9501,4193,2733,268438473
-376,-5964,15772,10233,7451,5906,268438473
-1268,-4820,13620,11102,7122,6447,268438473
-3156,-4208,15220,9187,7264,5790,268438473
-4212,-3016,16136,7738,3973,4468,268438473
-4560,-2636,16432,5987,3020,3282,268438473
-4440,-2428,16340,4258,3159,1667,268438473
-4308,-2232,16352,2144,1791,571,268438473
-4336,-2304,16344,2,460,-16,268438473
-3964,-2612,15360,-1067,-1110,-51,268438473
-3792,-2800,15092,-1321,-1775,-274,268438473
-3320,-3044,15172,-926,-1812,-402,268438473
-2936,-3092,15336,-596,-1643,-336,268438473
-2656,-3144,15536,-172,-1242,-159,268438473
-2692,-3232,15440,29,-732,149,268438473
-3004,-3136,15496,150,-391,317,268438473
-3200,-3032,15372,326,-91,315,268438473
-3164,-2840,15308,374,-154,92,268438473
-3204,-2896,15536,330,-206,-42,268438473
-3036,-2932,15476,65,-430,71,268438473
-2968,-2996,15544,-78,-380,37,268438473
-3140,-2988,15532,-41,-288,24,268438473
-3108,-3024,15644,-37,-333,100,268438473
-3032,-2976,15344,-50,-414,47,268438473
-2976,-2836,15472,10,-416,85,268438473
-3112,-2996,15516,-123,-599,160,268438473
-3132,-3136,16292,-272,-49,39,268438473
-3380,-2832,16972,-1007,1059,-445,268438473
-3648,-2880,16392,-3456,1126,-1399,268438473
-3796,-3224,17760,-5403,229,-2173,268438473
-4192,-2928,18044,-9926,102,-3741,268438473
-2460,-2708,17528,-15552,167,-5942,268438473
-3376,-3740,16572,-19314,-3836,-6355,268438473
-2556,-5356,14308,-24851,-6915,-7042,268438473
-2036,-6552,13116,-25785,-4819,-5519,268438473
-1452,-7648,12044,-27280,-2874,-5547,268438473
-1844,-9404,12196,-24471,-4202,-5461,268438473
-1828,-10260,11144,-21719,-6929,-6458,268438473
-740,-10104,9048,-22010,-8202,-8405,268438473
-40,-11604,7996,-20431,-9093,-10434,268438473
1644,-12120,6948,-18588,-10748,-11485,268438473
2548,-13780,6464,-15892,-9071,-11558,268438473
3016,-15436,6588,-12922,-7610,-10020,268438473
4268,-15648,7388,-13434,-7683,-6763,268438473
4428,-15668,5524,-13185,-5430,-3120,268438473
4528,-15116,4332,-12628,-4193,-1556,268438473
4636,-15364,4284,-12800,-3677,-725,268438473
4572,-15732,3444,-11490,-1474,178,268438473
4592,-15824,3684,-11158,-3390,132,268438473
3792,-15412,3392,-11548,-2685,882,268438473
3148,-15500,1960,-11099,-2152,-235,268438473
3020,-14860,1132,-12560,-5913,-1739,268438473
3428,-15192,532,-14105,-9632,-3131,268438473
3896,-15180,32,-14768,-10985,-4456,268438473
3920,-15536,-664,-15258,-12418,-4483,268438473
4612,-15328,-2744,-14643,-10203,-3919,268438473
4784,-15636,-3112,-12878,-9300,-4166,268438473
5116,-15700,-4416,-12806,-10268,-3966,268438473
8148,-14332,-5640,-13556,-11501,-3423,268438473
6276,-15388,-6512,-11541,-7876,-1604,268438473
5568,-14444,-7068,-10198,-8567,-194,268438473
4648,-13264,-8724,-10071,-9319,134,268438473
4708,-13936,-9088,-7768,-7983,-872,268438473
4160,-13780,-9256,-4604,-4590,-1808,268438473
3860,-13144,-10156,-299,-992,-1936,268438473
4904,-15928,-8440,7532,7417,-2506,268438473
5112,-14672,-9476,12425,9014,-2661,268438473
5728,-15304,-7708,17522,12265,-1076,268438473
5796,-14532,-5604,16999,9477,1803,268438473
5284,-15244,-4592,15079,7558,1816,268438473
5012,-16468,-3724,17012,9738,-54,268438473
5248,-16532,-2152,20499,12708,-2350,268438473
4452,-16788,-1976,24423,12595,-3876,268438473
4884,-16068,1780,26061,7657,-6882,268438473
5384,-14824,4400,24879,5810,-9475,268438473
5820,-14460,6424,22961,4638,-10246,268438473
7680,-14664,7384,20677,249,-10796,268438473
5168,-11884,5348,17667,-1320,-11162,268438473
6920,-11608,4496,15652,-3245,-12422,268438473
7744,-9612,5916,20761,1641,-15700,268438473
11208,-9880,6780,22074,2226,-17066,268438473
11704,-8592,6176,19720,6753,-10951,268438473
11180,-8116,7092,21652,12415,-7305,268438473
11968,-8372,9256,22237,19490,-5039,268438473
11840,-7544,10516,19338,25389,-1056,268438473
11004,-7316,11104,18167,32380,3876,268438473
7872,-6652,12572,18111,32767,10723,268438473
4264,-5480,14320,15370,32767,12438,268438473
3104,-4448,15644,11349,30415,12184,268438473
2288,-4224,15952,9785,32767,14715,268438473
-1108,-2684,15672,6012,32767,18458,268438473
-3948,-1516,16652,1748,27221,19796,268438473
-6116,-1288,16544,-3418,24545,18837,268438473
-7192,-784,15396,-8417,24128,18840,268438473
-10340,-368,13968,-13020,18922,19111,268438473
-10180,-380,13732,-15512,13005,15665,268438473
-9460,-1592,13168,-17302,12859,10053,268438473
-10112,-2240,11668,-19379,11769,8174,268438473
-10344,-1404,10508,-21646,8301,7947,268438473
-10776,-4568,11168,-23018,6150,7210,268438473
-11128,-5040,8956,-23396,2251,5909,268438473
-10696,-5648,8828,-23008,-6392,4082,268438473
-10212,-4396,8208,-23110,-2811,3029,268438473
-9944,-6400,8860,-24165,-2743,3913,268438473
-10060,-6608,6004,-26899,-5030,6071,268438473
-10372,-6760,5704,-27632,-7254,7731,268438473
-10560,-8796,6844,-26752,-6568,8410,268438473
-11512,-10832,5332,-24386,-6138,6086,268438473
-11652,-11392,5908,-21736,-8165,-1732,268438473
-11476,-9332,5788,-18683,-9933,-8598,268438473
-11008,-10776,6904,-17622,-11400,-10909,268438473
-9500,-11464,6100,-17741,-14171,-10862,268438473
-7744,-11576,6212,-19604,-13625,-10528,268438473
-7736,-12288,4608,-20294,-11799,-7716,268438473
-7304,-12952,4092,-19792,-11076,-6630,268438473
-7532,-12704,3604,-21369,-14042,-7868,268438473
-6908,-13064,2196,-22935,-16248,-9032,268438473
-5644,-14568,1516,-22695,-16610,-10308,268438473
-4172,-15140,992,-21648,-16160,-9174,268438473
-4500,-15580,-92,-19068,-13988,-8278,268438473
-3764,-16380,-564,-17531,-13486,-9163,268438473
-3844,-16872,-76,-19396,-15791,-11723,268438473
-2480,-16332,-1888,-21612,-15459,-11981,268438473
-2864,-16608,-2468,-21513,-12241,-11383,268438473
-1224,-16644,-4964,-18788,-6439,-12798,268438473
-1928,-15184,-5724,-19974,-9009,-14569,268438473
-412,-16104,-5560,-20171,-8242,-15887,268438473
184,-15656,-7280,-16274,-4781,-15805,268438473
1408,-15236,-8920,-13740,-5954,-17648,268438473
1008,-13492,-9160,-13497,-8611,-18574,268438473
2108,-12772,-9748,-14013,-10301,-19142,268438473
2460,-11272,-10872,-15304,-13431,-17332,268438473
2236,-11544,-10964,-14150,-13584,-19523,268438473
4504,-12908,-11440,-8484,-7168,-19384,268438473
8396,-13560,-13304,-820,474,-13136,268438473
9552,-13824,-12328,3352,506,-2723,268438473
6204,-12640,-11312,5158,4061,7111,268438473
4720,-11776,-11812,5081,5091,10058,268438473
5980,-12128,-11912,2626,1180,12501,268438473
5408,-12332,-10892,118,-1914,15290,268438473
3316,-12128,-10928,-3451,-4781,17461,268438473
1480,-11412,-10848,-6028,-8406,17349,268438473
876,-10780,-11644,-4128,-7220,18084,268438473
-88,-11248,-12576,703,-5705,17551,268438473
-2020,-11416,-11128,6224,-540,17124,268438473
-3604,-11696,-11404,10824,5010,14758,268438473
-3488,-12340,-10076,14076,6507,13074,268438473
-2968,-12908,-9396,15731,7870,12987,268438473
-2812,-14116,-8580,15962,10177,13509,268438473
-4028,-14340,-9228,15959,12333,11948,268438473
-4580,-22744,-11224,15570,18980,5923,268438473
-520,-14612,-9192,12821,12307,4450,268438473
-3224,-11816,-8164,13850,10158,11531,268438473
-6020,-12844,-7296,17039,7514,8102,268438473
-4504,-14184,-5692,22189,11809,5464,268438473
-3024,-16768,-5000,28139,21024,6079,268438473
-3840,-14228,-4620,30939,21541,9644,268438473
-4144,-14592,-1444,29846,17514,9626,268438473
-5188,-13648,32,26845,15834,11399,268438473
-5972,-14152,-352,28320,18804,12633,268438473
-6476,-14604,1512,30852,20337,11664,268438473
-10184,-12936,3208,26627,15743,12602,268438473
-8336,-12520,4388,21959,15639,12041,268438473
-9736,-12452,2900,22283,16406,11693,268438473
-9196,-11456,5120,21702,12936,9429,268438473
-9628,-10628,5288,19359,13082,9638,268438473
-8880,-10632,4780,19797,11176,10916,268438473
-10788,-9828,4576,21052,12691,11159,268438473
-11460,-8448,5636,20852,11009,10588,268438473
-12388,-7836,6692,15951,7883,9747,268438473
-12504,-7264,4472,15558,8809,8894,268438473
-13424,-6656,2700,20862,10749,8716,268438473
-13672,-5224,3824,23423,7787,6975,268438473
-13004,-4644,4576,22880,3654,5937,268438473
-13264,-3568,6480,20582,295,5663,268438473
-14224,-2988,6820,20398,621,4360,268438473
-14072,-1860,5860,19314,-314,2107,268438473
-14076,-1752,5752,16868,-5160,-906,268438473
-13608,-1372,8572,14310,-9066,-1942,268438473
-13608,-1400,10096,11348,-10590,-2642,268438473
-13940,-1504,10456,11652,-7537,-2912,268438473
-13908,-1516,9360,13091,-6470,-3865,268438473
-13716,-1444,9672,11639,-12158,-6613,268438473
-12004,-652,11008,9101,-19449,-8470,268438473
-10744,-560,11620,8662,-21284,-9814,268438473
-9148,24,11264,9413,-19865,-11199,268438473
-8544,-764,12956,10896,-22167,-13618,268438473
-7020,-196,14380,10247,-27185,-14226,268438473
-5480,-2428,14444,8188,-29967,-13236,268438473
-4372,-2300,17860,9625,-31153,-12622,268438473
-1596,-2336,17312,10007,-25474,-11886,268438473
40,-2752,16724,9022,-25276,-10768,268438473
824,332,16220,-1658,-21861,-2378,268438473
1324,-2692,16400,-8586,-30808,4043,268438473
3792,-2032,16748,-11264,-32768,8857,268438473
5608,-2084,17304,-9584,-32768,11073,268438473
5512,-1880,16476,-3336,-24280,11209,268438473
3436,-900,17264,-4240,-15256,6219,268438473
5040,-3416,15344,-10512,-25082,5762,268438473
7896,-4704,13188,-14633,-32768,7572,268438473
10368,-5928,11800,-11940,-32768,8158,268438473
10344,-5672,11276,-4343,-22364,8130,268438473
9976,-6372,8920,-6091,-26472,10231,268438473
12064,-7472,8388,-12688,-32768,11067,268438473
12616,-8296,8720,-15084,-32768,9692,268438473
12400,-8560,6500,-13249,-30515,8739,268438473
13444,-8720,3772,-13660,-25203,9697,268438473
13264,-9224,424,-15164,-25596,9867,268438473
14192,-10808,-732,-14747,-31880,10901,268438473
13396,-11928,-368,-10845,-25833,12570,268438473
12148,-10708,-2976,-8422,-15914,14054,268438473
11188,-11080,-3788,-7265,-12487,15008,268438473
11636,-11780,-3612,-7493,-8857,16907,268438473
10808,-11432,-5048,-11361,-11274,19361,268438473
9916,-11388,-6448,-12809,-8896,20213,268438473
8052,-10812,-8788,-7934,-1309,20816,268438473
8524,-12316,-9684,-3537,94,19144,268438473
7412,-12716,-8712,-1145,1150,18720,268438473
4544,-13080,-8804,1537,4526,15980,268438473
4124,-13388,-9652,3731,7918,12817,268438473
3428,-13812,-9432,8292,13056,10912,268438473
4328,-14936,-9044,15784,20846,8016,268438473
4260,-14888,-8992,21595,23979,8004,268438473
4040,-15632,-6396,28796,24700,6071,268438473
3720,-15400,-3780,32767,29326,6639,268438473
2764,-14972,-1700,32767,32767,6421,268438473
1964,-14432,2072,32767,32767,6009,268438473
400,-13232,3960,32767,32767,6403,268438473
-1620,-11724,5552,32767,32767,5229,268438473
-1204,-10004,8056,32767,32767,4531,268438473
-2336,-7592,11956,32767,32767,5705,268438473
-5912,-6184,13280,32767,29361,5940,268438473
-8788,-4700,13068,29984,25505,3291,268438473
-10552,-3380,13232,28245,24306,-412,268438473
-8316,-2360,15308,27064,19204,-3313,268438473
-9380,-1456,15676,17578,11899,-505,268438473
-11732,-1696,14532,10123,4909,-1550,268438473
-11520,-1632,15344,7008,999,-5417,268438473
-10168,-1652,14800,5353,-657,-7021,268438473
-10392,-1424,14100,4172,-2719,-9265,268438473
-10004,-1356,13604,5522,-3231,-12640,268438473
-9672,-916,13144,6309,-5412,-16679,268438473
-7312,-716,14628,7874,-9239,-19899,268438473
-5244,-2268,15120,5622,-12250,-18100,268438473
-5088,-3100,14124,1472,-11813,-15189,268438473
-6024,-4572,13412,1547,-12140,-15046,268438473
-4852,-2196,14440,2075,-12699,-17037,268438473
-3204,-3600,15360,-1032,-15549,-18340,268438473
-1716,-4452,15672,-2753,-15801,-16952,268438473
-1236,-4528,15252,-3002,-16466,-15274,268438473
640,-5368,15052,-5276,-22516,-13570,268438473
2688,-6032,15172,-6274,-25873,-11334,268438473
4492,-6328,14476,-6069,-27170,-8356,268438473
6936,-9228,16332,-4664,-28524,-2697,268438473
9032,-7728,15484,-7026,-29021,3594,268438473
7196,-6844,15008,-6230,-24812,5533,268438473
9348,-7916,13368,-4103,-17268,5739,268438473
10532,-9216,11348,-3095,-13044,9857,268438473
10244,-9316,8380,-2414,-16059,15155,268438473
8120,-7432,9700,-69,-21276,17370,268438473
7684,-7480,9996,-746,-19944,14853,268438473
8880,-9124,9492,-1699,-12321,11980,268438473
7528,-9288,8368,-1507,1437,10917,268438473
6544,-9064,7364,1481,9563,8522,268438473
6568,-9492,6308,6016,13522,5746,268438473
6008,-8652,7952,9653,15029,3890,268438473
5276,-8480,10604,11113,15211,1704,268438473
4236,-7608,11608,11547,19730,-1712,268438473