ax, ay, az, gx, gy, gz, temp
-188,-3692,14948,-397,5777,-553,268438473
-656,-3852,14616,-220,5121,-45,268438473
-1464,-3028,15864,2386,6777,-423,268438473
-528,-3600,16036,2133,4777,-2548,268438473
-1016,-3412,16432,842,4574,-2172,268438473
-1432,-3272,15820,274,3575,-1889,268438473
-1180,-3636,15272,493,3207,-1954,268438473
-1072,-3468,15444,980,2394,-1282,268438473
-1236,-3388,15604,1052,2060,-629,268438473
-1636,-3236,16080,381,1394,-392,268438473
-1912,-3304,15736,-137,1036,-393,268438473
-1964,-3316,15372,92,1258,-389,268438473
-2092,-3380,15320,640,674,-129,268438473
-2000,-3396,14996,1368,816,108,268438473
-1996,-3108,15268,1620,-51,497,268438473
-2180,-2932,15552,1909,-354,746,268438473
-2352,-2832,15728,2050,-506,641,268438473
-2276,-2756,16020,2087,-414,266,268438473
-2272,-2560,16080,1974,-188,27,268438473
-2096,-2508,16140,1327,-185,-53,268438473
-2104,-2460,16092,635,-182,-3,268438473
-2168,-2468,15832,4,-409,118,268438473
-2224,-2456,15764,-208,-731,64,268438473
-2100,-2524,15736,-137,-907,74,268438473
-1976,-2492,15880,45,-1005,126,268438473
-1928,-2536,15944,232,-633,50,268438473
-1800,-2456,15984,35,-562,80,268438473
-1860,-2604,15848,170,-45,32,268438473
-1932,-2476,15712,124,-56,8,268438473
-1976,-2500,15744,150,-256,135,268438473
-1944,-2508,15684,196,-262,129,268438473
-2024,-2460,15564,236,-510,117,268438473
-1952,-2412,15788,372,-299,68,268438473
-1884,-2428,15808,319,-292,47,268438473
-1828,-2388,15928,183,-291,123,268438473
-1956,-2328,15916,127,-330,125,268438473
-2028,-2316,15688,-32,-431,95,268438473
-1992,-2292,15736,-132,-351,-23,268438473
-1912,-2396,15928,-49,-270,-62,268438473
-1840,-2432,15820,-129,-377,9,268438473
-1928,-2344,15812,-98,-352,49,268438473
-1916,-2400,15824,-65,-190,6,268438473
-2064,-2528,16008,-154,-233,-57,268438473
-1888,-2408,15844,-357,-461,-102,268438473
-1752,-2456,15828,-314,-304,-85,268438473
-1748,-2380,15820,-102,-59,-73,268438473
-1776,-2468,15800,-22,6,-11,268438473
-1816,-2468,16016,-269,-367,61,268438473
-1928,-2412,15812,-359,-263,49,268438473
-1908,-2456,15712,-365,-282,-17,268438473
-1892,-2532,15764,-388,-388,-46,268438473
-1776,-2556,15660,-362,-502,-6,268438473
-1840,-2572,15864,-310,-396,-25,268438473
-1684,-2652,15944,-457,-293,-60,268438473
-1596,-2620,15976,-783,-741,47,268438473
-1804,-2684,15520,-746,-476,127,268438473
-1980,-2436,15936,-420,-346,-184,268438473
-1740,-2748,16140,-790,-515,-390,268438473
-1572,-2676,16352,-1358,-274,-462,268438473
-2360,-2376,15676,-1909,361,-281,268438473
-2832,-1884,16492,-2804,-1780,-496,268438473
-2240,-2396,15996,-3808,-1809,976,268438473
-1664,-2916,15608,-4349,-2117,1236,268438473
-1300,-3848,15476,-4044,-2155,923,268438473
-888,-4204,15944,-4293,-3310,194,268438473
-972,-3828,16092,-5128,-2743,-327,268438473
-1144,-3744,16124,-6395,-2498,465,268438473
-880,-4488,15472,-8125,-1369,815,268438473
-596,-4408,15300,-9557,898,1686,268438473
-792,-5660,15052,-11072,1905,1742,268438473
-860,-6108,15232,-12425,1344,2072,268438473
-952,-6536,14720,-13370,1065,2244,268438473
-1076,-6900,14348,-13688,2722,3225,268438473
-1744,-7632,13884,-13637,3359,4365,268438473
-2300,-8644,13844,-12870,2298,4216,268438473
-2680,-9056,13304,-12587,-34,3414,268438473
-2564,-9576,12208,-11852,-499,2639,268438473
-2536,-10104,12160,-11658,-720,1820,268438473
-2900,-10112,11928,-12144,-1814,1624,268438473
-2728,-10616,11736,-12790,-3407,1775,268438473
-2496,-11016,11144,-13545,-3500,1589,268438473
-2248,-11812,10628,-14172,-3770,672,268438473
-1892,-12180,9832,-15118,-4946,-386,268438473
-2000,-12808,9068,-15801,-5243,-1606,268438473
-2092,-13516,8804,-14812,-5626,-2130,268438473
-1472,-13820,7736,-13762,-5366,-2591,268438473
-928,-14424,6936,-12622,-5945,-3041,268438473
-460,-14776,6816,-12060,-6606,-3545,268438473
140,-15232,5812,-11545,-6066,-3892,268438473
276,-14716,5044,-10987,-5812,-3529,268438473
568,-14896,5092,-10618,-6691,-2240,268438473
784,-15516,4720,-10276,-5331,-1259,268438473
680,-15728,4060,-10023,-4602,-442,268438473
664,-15428,3312,-10823,-5354,-261,268438473
808,-16132,3368,-11726,-5862,-645,268438473
828,-16096,2152,-11454,-4923,-515,268438473
920,-16388,1284,-10712,-4503,12,268438473
796,-16296,832,-10143,-5110,-63,268438473
868,-16508,476,-10418,-6071,-586,268438473
1128,-16252,140,-10584,-5803,-767,268438473
980,-16328,-792,-9437,-4804,-806,268438473
996,-16560,-1192,-8831,-5125,-1267,268438473
1128,-16664,-1336,-8491,-5275,-1674,268438473
1156,-16348,-1744,-8003,-4134,-1239,268438473
988,-16356,-2416,-7620,-3589,-851,268438473
1288,-16724,-2256,-8311,-4138,-1467,268438473
1216,-16276,-2808,-9225,-4079,-1224,268438473
708,-15600,-3620,-10015,-3853,-1022,268438473
760,-15476,-4576,-10190,-3708,-1527,268438473
1276,-15660,-4968,-10342,-4322,-2128,268438473
1888,-14748,-5216,-10880,-3751,-2501,268438473
1140,-14904,-5888,-10169,-2485,-3014,268438473
920,-15080,-6984,-8970,-1724,-2815,268438473
1584,-15384,-7016,-8351,-1511,-3248,268438473
2432,-14684,-7216,-8865,-1465,-3487,268438473
2612,-14472,-8460,-9016,-1467,-3177,268438473
2176,-14080,-9412,-7642,-1613,-2817,268438473
2220,-14164,-9808,-6491,-2139,-3083,268438473
2544,-13940,-10312,-5030,-2110,-3537,268438473
2964,-14068,-9812,-5585,-4189,-4473,268438473
3448,-14092,-9248,-5548,-3064,-3704,268438473
2716,-13944,-10372,-5210,-2553,-2713,268438473
2148,-13232,-10360,-4818,-2610,-4049,268438473
2544,-13120,-10156,-4444,-1704,-5571,268438473
4424,-12524,-9488,-6854,-3653,-3803,268438473
3564,-13340,-11104,-9135,-4843,-2053,268438473
2744,-12636,-11080,-9572,-5517,-2361,268438473
3000,-11476,-11068,-10459,-5151,-2668,268438473
2172,-11084,-11924,-11049,-4450,-2773,268438473
2936,-10772,-12204,-11616,-4639,-3264,268438473
-32,-9196,-13532,-10910,-2639,-3012,268438473
2780,-10292,-13672,-10834,-3452,-2330,268438473
2372,-9932,-14740,-9108,-2193,-2251,268438473
8620,-10316,-13348,-8122,-1811,-2963,268438473
2956,-8944,-14776,-8714,-2506,-1926,268438473
2664,-8432,-14988,-9225,-2803,-2339,268438473
7104,-8928,-14096,-8512,-1428,-2689,268438473
2504,-7516,-16036,-8593,-2941,-2300,268438473
2024,-7304,-16928,-8600,-3409,-2202,268438473
2388,-6944,-16508,-8166,-2861,-2262,268438473
2900,-6572,-16396,-8870,-4168,-2415,268438473
2620,-6016,-16432,-8929,-4451,-2287,268438473
1700,-5480,-16992,-9206,-5547,-2329,268438473
1540,-5168,-16936,-11090,-7844,-3533,268438473
964,-4768,-16888,-13553,-9429,-6512,268438473
1568,-4648,-17464,-12258,-6447,-5470,268438473
1188,-3372,-18200,-10336,-5360,-3482,268438473
484,-2420,-18004,-7430,-4108,-2813,268438473
-480,-1520,-17916,-5011,-2995,-2269,268438473
-476,-1168,-17352,-4053,-2558,-3118,268438473
540,-1528,-16668,-3793,-1724,-2994,268438473
284,-1692,-16984,-3726,-732,-1489,268438473
-8,-1356,-17232,-3857,-416,-1557,268438473
188,-1520,-17848,-4634,-291,-1612,268438473
4,-1168,-18432,-4142,290,-1639,268438473
640,-1148,-18692,-3614,8,-1319,268438473
624,-1120,-18792,-2470,36,-278,268438473
416,-312,-18852,-1002,-410,47,268438473
204,-436,-18004,175,-43,318,268438473
8,-292,-17756,229,-165,293,268438473
-104,-316,-17388,51,217,31,268438473
-160,-240,-17564,-360,175,-244,268438473
-32,-276,-18080,638,728,-414,268438473
-348,-68,-18240,2008,1756,-301,268438473
-144,-180,-18952,4774,3415,-540,268438473
192,-492,-18964,8445,5502,-49,268438473
1448,-1456,-18696,11762,5884,36,268438473
700,-1840,-17040,13008,6985,914,268438473
104,-2320,-16932,15662,12381,1603,268438473
4428,-4524,-17600,14466,7993,-539,268438473
3952,-4216,-16204,8366,1012,148,268438473
1856,-5128,-16788,8007,201,376,268438473
1992,-5620,-16736,10317,1701,-182,268438473
3308,-6756,-16192,10369,1936,212,268438473
3736,-7496,-15632,8510,706,1418,268438473
3216,-7560,-15688,8089,1441,3047,268438473
2812,-7512,-15548,8605,2532,3720,268438473
2580,-7768,-15996,9346,3393,3790,268438473
3412,-8492,-15852,9775,2558,2996,268438473
3480,-8524,-14972,9104,2036,3241,268438473
3384,-9340,-14932,10653,4437,4835,268438473
3868,-9904,-15092,12255,4996,5763,268438473
3748,-10096,-14264,12084,3434,6095,268438473
3076,-10640,-14148,12944,3665,6440,268438473
2624,-10592,-13808,15244,4777,6251,268438473
2720,-11872,-13180,17738,6040,6353,268438473
2984,-12176,-12196,19198,6182,6363,268438473
2680,-12408,-11156,20008,6400,6128,268438473
2664,-13304,-9712,20724,6871,6545,268438473
2908,-14008,-8548,21552,7654,7216,268438473
2800,-14212,-7424,21138,7071,7541,268438473
2260,-14440,-5976,19868,6721,7496,268438473
1860,-14772,-4896,19122,7294,7670,268438473
1676,-15432,-3960,18647,6952,7557,268438473
1200,-15640,-3080,17688,6310,7626,268438473
628,-15684,-1868,16277,4724,7066,268438473
-280,-15876,-684,15329,4903,6218,268438473
136,-15980,168,14777,5557,5666,268438473
8,-16060,980,13913,4971,5928,268438473
-724,-15824,2156,12488,3663,5688,268438473
-1272,-15664,2680,11597,4465,5510,268438473
-1232,-15820,2680,11239,4135,5346,268438473
-1544,-15676,3540,10517,3414,5011,268438473
-2000,-15196,4144,10116,3958,4948,268438473
-2248,-15408,4244,10047,4055,5046,268438473
-2580,-14976,4552,9799,3581,4912,268438473
-2904,-14824,5240,9777,3469,4663,268438473
-3092,-14736,5636,9997,3709,4779,268438473
-3396,-14348,6372,10141,3721,4929,268438473
-3632,-14132,6744,9887,3948,4791,268438473
-3992,-14084,7232,9327,3286,4642,268438473
-4264,-13652,7504,8389,2687,4272,268438473
-4476,-13524,7932,7542,2497,4105,268438473
-4556,-13060,7992,7051,2784,4265,268438473
-4904,-12936,7784,6913,2756,4263,268438473
-5076,-12472,8432,7217,2649,4277,268438473
-5600,-12436,8364,8375,3346,4634,268438473
-5880,-12016,8364,9937,3291,5014,268438473
-6176,-11424,9140,11212,3483,5108,268438473
-6660,-11192,9540,13219,3615,5601,268438473
-7152,-10192,10020,14579,2599,6196,268438473
-7504,-9380,9616,14354,2822,5855,268438473
-6632,-8780,10904,13456,2318,5954,268438473
-7056,-8084,11016,13204,2802,7351,268438473
-7892,-7276,11428,11523,3933,8047,268438473
-8184,-6808,11576,9335,4769,7091,268438473
-8304,-5672,11704,8680,5493,7872,268438473
-9160,-5904,11276,8258,5231,8209,268438473
-12016,-4468,10300,7524,3102,7659,268438473
-10076,-4964,11540,8409,1799,5736,268438473
-9432,-4484,11532,10238,1861,5783,268438473
-9816,-3348,11652,10948,3971,5951,268438473
-10432,-2444,11604,10918,4345,5908,268438473
-10504,-2016,11932,10762,4499,6089,268438473
-10580,-1196,12016,10133,3983,6401,268438473
-10876,-380,11812,8669,4131,6767,268438473
-10536,472,12184,7833,4316,8194,268438473
-10960,1704,12368,5412,4054,10375,268438473
-11460,1088,11828,2331,4379,12350,268438473
-12292,568,11068,1505,4934,10799,268438473
-11996,1560,10620,1275,4030,8248,268438473
-14516,2528,8660,697,2144,6408,268438473
-11836,2628,10936,1350,-1880,4677,268438473
-10744,2184,11072,2903,-3577,6151,268438473
-11124,2092,9796,4879,-4532,8009,268438473
-11320,3092,9944,5376,-4793,7950,268438473
-11100,3296,9988,6341,-2472,7378,268438473
-11100,4496,10828,7880,-3121,7137,268438473
-11016,5520,11268,8941,-5636,7922,268438473
-10128,6340,9892,9498,-7673,10450,268438473
-10048,6040,9944,9160,-4887,12175,268438473
-10220,7204,11028,9350,-2568,10304,268438473
-9944,8012,10680,8659,-1790,8510,268438473
-9612,8512,10516,8647,-2956,6805,268438473
-8672,9320,10108,9034,-1711,7034,268438473
-8480,9816,9084,9712,1591,7020,268438473
-8552,9984,8596,9975,2847,6020,268438473
-8008,10444,8612,10572,1710,4892,268438473
-8612,10764,7588,11643,141,4520,268438473
-8228,11004,6736,11691,-595,4574,268438473
-7148,10568,6476,11708,-1580,4925,268438473
-6432,11608,7076,12599,-2079,5860,268438473
-6440,13736,7024,11543,-2426,6418,268438473
-6384,14012,7668,8302,-1814,6436,268438473
-5428,13624,7528,5180,-1199,6472,268438473
-5148,13364,6588,4060,11,7212,268438473
-4440,13364,7172,5437,-436,6903,268438473
-4060,14332,5992,6981,-4218,7823,268438473
-3968,14324,4760,8170,-1945,8809,268438473
-4752,13836,5120,10184,-1498,9237,268438473
-4192,15968,4924,10569,725,7739,268438473
-3552,15664,5588,8181,1026,6950,268438473
-3704,14972,5404,5604,1754,5616,268438473
-2440,13780,4756,3902,1827,5006,268438473
-1684,16764,3188,4726,1332,4826,268438473
-2628,15756,2316,8296,2438,4156,268438473
-2636,15976,1568,9993,2483,3821,268438473
-2500,16144,852,10670,668,2369,268438473
-1968,15936,800,9461,576,1529,268438473
-1960,15720,768,8190,823,1203,268438473
-2516,15816,-144,5904,877,754,268438473
-2488,15328,-876,3787,-29,717,268438473
-2616,15684,-956,2891,-916,557,268438473
-1692,15636,-652,2494,-367,323,268438473
-1784,15824,-644,2436,-389,-78,268438473
-1800,16872,-736,810,-1088,15,268438473
-1748,16236,-596,-1233,-1318,-293,268438473
-1780,15644,-816,-1452,-1518,-507,268438473
-2000,15768,-736,-1150,-1963,-611,268438473
-1948,16092,-432,-1552,-1534,-251,268438473
-2108,15844,-240,-2127,-1131,-79,268438473
-2084,15980,-424,-2363,-1189,-123,268438473
-2748,16096,92,-1915,-1261,-866,268438473
-1532,16448,32,-1469,-1344,-460,268438473
-2244,16684,552,-2005,-2059,-442,268438473
-2744,16900,948,-4188,-2710,-912,268438473
-2032,16060,1120,-6293,-1718,-1926,268438473
-1628,15900,652,-3638,-110,-2756,268438473
-2292,16736,1288,-3636,-799,-2373,268438473
-3040,16584,1432,-6868,-1403,-2490,268438473
-2060,16860,1716,-10507,-2411,-3867,268438473
-3724,16784,1616,-11912,-3743,-7280,268438473
-2440,14852,2244,-11591,-4718,-7220,268438473
-3140,14372,3344,-12106,-5568,-6081,268438473
-3076,14144,4384,-14388,-4942,-4515,268438473
-3556,13940,5224,-14694,-4575,-3627,268438473
-3864,13160,5916,-13592,-3229,-4831,268438473
-4020,13520,6340,-13688,-5450,-5538,268438473
-3828,12772,7164,-13866,-4777,-5286,268438473
-3936,12232,7748,-12032,-4173,-4492,268438473
-4336,12592,8456,-11753,-4983,-3962,268438473
-4472,12456,9500,-13636,-5069,-3791,268438473
-4252,11812,9976,-14139,-5005,-3951,268438473
-4128,10940,10404,-14261,-4032,-3406,268438473
-4156,10520,10696,-14285,-4857,-2492,268438473
-4312,10632,11940,-15284,-5985,-2787,268438473
-4416,9660,12664,-16231,-5334,-4480,268438473
-4396,8856,12832,-17029,-4808,-4850,268438473
-3980,8080,12968,-17307,-5199,-4617,268438473
-3844,7268,13456,-16408,-5686,-4648,268438473
-3932,6584,14092,-16447,-5966,-5360,268438473
-3996,5680,14532,-18011,-5544,-6233,268438473
-3336,4144,14660,-18674,-5000,-6012,268438473
-3404,3764,14816,-19057,-5951,-5663,268438473
-3016,2220,15072,-19561,-6586,-5922,268438473
-2596,888,15332,-19153,-6371,-5568,268438473
-2772,-88,15272,-18662,-7192,-5484,268438473
-2072,-1720,15304,-18366,-8216,-5963,268438473
-1436,-3128,15020,-18349,-8251,-5773,268438473
-900,-3740,15276,-17076,-7452,-5134,268438473
-132,-5120,15500,-14461,-7605,-5544,268438473
264,-5836,15276,-12340,-6780,-5785,268438473
720,-6040,15284,-13613,-7213,-4500,268438473
1560,-7640,15396,-15651,-5455,-2578,268438473
1864,-7660,14624,-14234,-4852,-1538,268438473
1576,-7648,14076,-13688,-5877,-1005,268438473
2064,-8400,13340,-14822,-6950,-366,268438473
2628,-10024,13592,-14752,-5478,395,268438473
2852,-10156,12908,-12897,-3793,-269,268438473
2660,-10180,12700,-12239,-3787,-1882,268438473
3052,-11572,11884,-13040,-5242,-1862,268438473
3472,-11848,11608,-15239,-5540,-919,268438473
3736,-11088,10712,-16211,-2463,-499,268438473
3444,-12112,9548,-13876,-1791,-1969,268438473
3604,-13540,9288,-13785,-7156,-2481,268438473
3744,-13492,9556,-15898,-7279,-1263,268438473
4028,-13364,9072,-15699,-5877,-729,268438473
3796,-12696,7840,-16633,-6995,386,268438473
3992,-13752,6236,-20104,-8037,1413,268438473
3896,-14996,3896,-21533,-8021,1899,268438473
4328,-14876,3984,-20486,-6051,2024,268438473
4468,-14880,3328,-18197,-7249,1600,268438473
4748,-15892,2468,-16869,-7711,1219,268438473
4668,-16036,1552,-16479,-7422,1792,268438473
4080,-16100,108,-15188,-7398,2588,268438473
3172,-16192,320,-14177,-8942,2588,268438473
3404,-16160,12,-13067,-5646,1440,268438473
3240,-15876,-1032,-11715,-4206,440,268438473
3360,-15784,-2316,-12729,-4191,-88,268438473
4164,-15444,-3324,-16222,-3704,-145,268438473
4068,-15908,-4408,-16901,-1464,-68,268438473
4380,-14980,-5856,-16252,547,679,268438473
4132,-14528,-6588,-14779,1049,1017,268438473
3792,-15032,-6968,-11286,2724,216,268438473
4320,-15220,-8396,-7868,738,-226,268438473
4504,-14488,-8000,-6539,-1093,228,268438473
4160,-13864,-8460,-6112,15,1413,268438473
4532,-14276,-9552,-6738,-1330,2158,268438473
3828,-13820,-9572,-6892,-908,2608,268438473
3416,-13676,-9480,-7115,-2410,3171,268438473
2956,-13420,-9536,-7473,-2977,3700,268438473
3472,-13568,-10604,-8186,-3946,3999,268438473
2960,-12960,-9836,-10795,-5782,5330,268438473
2228,-12960,-10476,-13344,-5192,5796,268438473
1460,-12644,-11616,-13858,-2887,4706,268438473
1252,-12084,-11744,-14609,-3097,4219,268438473
1044,-11032,-12344,-13828,-1473,4466,268438473
84,-10284,-12988,-10580,-902,4370,268438473
156,-9864,-13632,-7313,302,4101,268438473
444,-9588,-14304,-5435,351,3764,268438473
1104,-9756,-15092,-4927,59,3518,268438473
256,-8784,-14208,-5368,340,3809,268438473
444,-9744,-14900,-5925,1147,2758,268438473
1068,-9572,-15076,-6730,1114,2177,268438473
1040,-9536,-15524,-5987,1334,2267,268438473
1292,-9444,-16168,-3851,1391,2387,268438473
1180,-9092,-16408,-972,750,2712,268438473
812,-8824,-16216,2076,2049,2314,268438473
476,-9236,-16264,5864,3129,1501,268438473
76,-8880,-16080,9687,4792,1185,268438473
392,-8824,-16312,14271,9070,556,268438473
1560,-11676,-14908,19508,4405,-394,268438473
2052,-12188,-12776,21072,3481,183,268438473
1652,-11816,-12424,21849,6125,1794,268438473
1520,-12668,-11744,23640,8537,3392,268438473
1820,-14240,-9796,24531,7957,4593,268438473
1472,-14820,-8304,24577,7768,5338,268438473
1584,-15068,-7220,23331,9178,6322,268438473
1552,-15112,-6596,22636,10406,8095,268438473
808,-15640,-5928,23979,11521,9003,268438473
-312,-16248,-3288,25407,8640,8327,268438473
-48,-16364,-1132,23858,9604,6658,268438473
412,-15992,-140,21349,11457,7070,268438473
-976,-15164,344,19991,14939,7832,268438473
-2408,-15700,740,21116,16249,6426,268438473
-620,-15612,1944,21047,13409,4991,268438473
-596,-15468,3188,19500,12328,6070,268438473
-1476,-14948,3700,19312,15807,7839,268438473
-2972,-14256,3792,20654,18239,8789,268438473
-3232,-14900,4552,20426,13416,8090,268438473
-3976,-13200,7688,14386,8765,6525,268438473
-5544,-13272,8616,10857,13537,5767,268438473
-6524,-12592,6884,12940,23517,5723,268438473
-7564,-11964,6244,14615,23070,4309,268438473
-7620,-12468,8124,11762,14681,922,268438473
-7996,-10752,9148,4580,12479,-674,268438473
-9232,-10680,7052,3570,16431,-2455,268438473
-8664,-11920,6524,5872,15239,-4814,268438473
-8000,-11596,6976,1481,7711,-6516,268438473
-8532,-11576,6968,-909,8820,-5753,268438473
-8364,-12220,6912,1701,11666,-7024,268438473
-8468,-11524,6208,6264,17540,-6977,268438473
-7828,-12512,6616,7837,14273,-8664,268438473
-6616,-12564,5896,3226,9002,-9675,268438473
-7144,-12640,5608,1512,9806,-9270,268438473
-7212,-12812,5712,6788,13887,-8870,268438473
-6968,-13276,5344,10631,13425,-8820,268438473
-5876,-12328,5788,7400,10668,-10040,268438473
-6112,-12504,5900,7687,13243,-9259,268438473
-6544,-12428,6304,11574,15605,-9094,268438473
-5632,-13168,6876,9753,12687,-10273,268438473
-5620,-12528,6464,6722,12565,-9594,268438473
-6600,-12052,7384,9500,16772,-9522,268438473
-8456,-12212,6592,11417,16278,-9454,268438473
-5432,-13600,5956,12150,14170,-12513,268438473
-4224,-14200,6112,9641,9220,-12972,268438473
-3108,-14328,5196,8600,7650,-10081,268438473
-2336,-15300,5060,11452,2904,-6098,268438473
-2192,-15572,7268,14720,149,-2895,268438473
-3536,-13492,7840,18853,-234,1858,268438473
-3524,-12364,8516,19150,-2327,2323,268438473
-3004,-11452,8308,17221,-6851,1382,268438473
-4484,-11608,10956,18676,-11130,1967,268438473
-4648,-10876,13196,24877,-11412,4261,268438473
-4040,-9736,13584,29811,-10454,5553,268438473
-3152,-7080,14412,24165,-10246,5065,268438473
-3304,-5060,15040,14066,-7503,3565,268438473
-3408,-5692,16104,10713,-4027,2206,268438473
-3140,-5940,15848,15522,-1015,1244,268438473
-2888,-5404,14988,20701,528,1147,268438473
-3096,-3284,14828,20734,373,2216,268438473
-3640,-3112,15696,22305,2810,3160,268438473
-3640,-1588,15852,20880,-1239,4421,268438473
-3084,-340,15012,21142,-4854,2500,268438473
-2820,1152,13564,22319,-5206,731,268438473
-2740,2896,15412,18048,-1979,1761,268438473
-2856,2388,16612,12012,2393,4558,268438473
-1732,3728,14340,11865,4709,4443,268438473
-4792,6352,12868,10691,887,3400,268438473
-3520,5936,13808,9160,-4463,2820,268438473
-2888,5344,14876,7695,-2499,2237,268438473
-2096,5444,15636,5432,-1509,2458,268438473
-2104,7080,14860,1743,-1440,3617,268438473
-2544,6748,16064,-2858,-4229,4965,268438473
-2052,7332,16816,-8487,-5211,4354,268438473
-1312,6764,16532,-15431,-5719,3080,268438473
-900,5492,16124,-22016,-9684,2357,268438473
204,3732,16528,-24267,-8002,4072,268438473
540,1576,16552,-23471,-2602,6088,268438473
264,196,17252,-22412,-2059,8387,268438473
844,356,15660,-23589,-4278,9607,268438473
560,-768,14108,-24857,-823,9762,268438473
136,-2940,14908,-24323,655,8403,268438473
-232,-4176,15608,-21385,-1237,7391,268438473
-196,-5720,16072,-17410,-2845,6669,268438473
-20,-5500,15568,-15625,-3114,6046,268438473
-572,-5632,14272,-16947,922,5151,268438473
-1176,-7000,13872,-19627,-991,4251,268438473
-836,-8128,14056,-21714,-2073,3101,268438473
-48,-9540,13920,-22536,-963,2017,268438473
-324,-10324,13376,-21725,2471,2257,268438473
-784,-11032,11708,-21808,1791,2773,268438473
-688,-12772,11000,-21164,436,2102,268438473
-456,-13988,9508,-19377,1093,1758,268438473
-552,-13428,7380,-19000,-944,2478,268438473
-940,-13036,6352,-20488,-3423,2296,268438473
-756,-13352,6152,-22664,-5680,841,268438473
-868,-15136,5200,-23260,-7694,-815,268438473
-436,-15096,4328,-21647,-7029,-812,268438473
-568,-15408,3332,-20342,-9351,224,268438473
-552,-16052,3576,-20586,-10044,-453,268438473
-140,-16376,2760,-19822,-7990,-309,268438473
276,-16836,1188,-19183,-7312,752,268438473
320,-16216,-488,-20241,-7805,1197,268438473
-84,-16192,-1988,-21074,-10248,760,268438473
-32,-17100,-2824,-19567,-9549,68,268438473
-200,-16752,-4512,-17482,-9380,235,268438473
-448,-16408,-5760,-15382,-9739,-17,268438473
-168,-15884,-5816,-13372,-9320,-806,268438473
3804,-15928,-5020,-12060,-8567,-968,268438473
-1400,-14648,-7476,-11849,-9130,-1032,268438473
856,-15616,-4612,-12186,-9270,-2545,268438473
-1088,-13976,-6508,-13093,-8914,-3222,268438473
-1444,-13588,-7944,-14237,-9697,-5071,268438473
-1684,-13536,-8916,-14378,-8987,-7758,268438473
-1168,-14020,-9088,-14001,-9074,-9501,268438473
-700,-13160,-9404,-14017,-9066,-9941,268438473
-956,-11296,-11404,-14298,-8909,-11318,268438473
-1260,-11520,-11492,-12978,-9100,-14582,268438473
300,-11452,-12036,-12019,-8567,-14891,268438473
956,-12404,-11988,-12346,-10102,-15343,268438473
1412,-11552,-12264,-10830,-8468,-14376,268438473
1336,-11380,-13100,-8510,-5171,-11903,268438473
2096,-11608,-14324,-6242,-4435,-9910,268438473
2568,-10572,-15244,-5519,-5185,-7612,268438473
2880,-10308,-15764,-5071,-5872,-5812,268438473
2480,-9548,-15440,-3570,-5345,-4060,268438473
2052,-8716,-15376,-1603,-4773,-2345,268438473
1424,-8648,-15280,-130,-4398,-1636,268438473
1192,-8712,-15060,484,-4153,-2012,268438473
768,-8276,-14732,-555,-4827,-3203,268438473
868,-8484,-14628,-1033,-4424,-4067,268438473
852,-8768,-14420,-1613,-4004,-4616,268438473
424,-8148,-14508,-2759,-3901,-5383,268438473
556,-8272,-14300,-3751,-3612,-6705,268438473
536,-8192,-14224,-4080,-3217,-7129,268438473
552,-9096,-14708,-3332,-2876,-6801,268438473
300,-10004,-14508,-2381,-2611,-6279,268438473
648,-11624,-14284,-756,-1902,-5214,268438473
-64,-12376,-13900,37,-1389,-3461,268438473
-868,-12108,-13368,-573,-840,-2275,268438473
-1192,-12556,-13632,-435,333,-1133,268438473
-1120,-12072,-13884,-1011,855,-532,268438473
-1472,-11816,-14252,-1524,1819,-104,268438473
-1228,-11344,-14436,-1588,2572,336,268438473
-648,-11060,-15056,-2824,2536,518,268438473
-288,-10652,-15452,-3834,2436,956,268438473
-428,-9972,-15744,-3635,3292,1627,268438473
-92,-9344,-16292,-3555,3450,1817,268438473
684,-8836,-16668,-5038,2657,1787,268438473
668,-8396,-17076,-6127,2393,2031,268438473
808,-7332,-18004,-5981,2616,1842,268438473
1484,-6676,-18716,-5978,2341,1595,268438473
1860,-6092,-19452,-5173,1933,1385,268438473
2572,-5364,-19784,-4683,959,1628,268438473
2912,-5484,-20308,-4140,49,1523,268438473
3732,-5964,-20904,-2855,-1855,797,268438473
4888,-6220,-20044,-1593,-3422,1102,268438473
5704,-6408,-19044,-362,-3962,1512,268438473
5660,-5464,-19536,122,-5715,2136,268438473
5228,-4564,-19020,497,-6924,2070,268438473
5004,-3176,-18976,1449,-8036,976,268438473
4452,-2884,-17520,2320,-9140,279,268438473
3444,-2328,-17032,4597,-9043,-62,268438473
2300,-2824,-15244,5777,-9722,-1261,268438473
2564,-2240,-13716,6476,-9824,-1783,268438473
1984,-2788,-12512,6026,-9560,-2618,268438473
1344,-2328,-12280,5127,-9747,-3558,268438473
356,-2880,-11568,4742,-8995,-4527,268438473
-260,-3448,-11304,5277,-8071,-5301,268438473
-920,-4520,-11208,5921,-7664,-6384,268438473
-1068,-5924,-10112,5723,-7246,-7214,268438473
-1532,-6976,-9812,5591,-5931,-7365,268438473
-1892,-8708,-9108,5622,-4516,-7993,268438473
-1768,-9688,-9076,4624,-3269,-7901,268438473
-1852,-11100,-8572,4850,-2304,-7882,268438473
-2008,-11860,-7412,6541,-981,-7574,268438473
-2360,-13996,-6056,8563,468,-6431,268438473
-2540,-14764,-5400,8595,2851,-4392,268438473
-2604,-15176,-6384,6516,4242,-3779,268438473
-3060,-16500,-6828,5937,5627,-3542,268438473
-3028,-17408,-7056,6265,7358,-2432,268438473
-2000,-18100,-8240,5195,8252,-837,268438473
-2344,-18476,-9876,2105,8196,202,268438473
-3108,-18800,-10908,596,8698,1232,268438473
-3012,-18396,-12488,-1119,10155,2782,268438473
-2140,-17748,-15016,-2242,10018,3273,268438473
-1480,-16972,-16028,-3618,9630,4013,268438473
-540,-15460,-17156,-4225,10198,4127,268438473
1616,-14224,-18380,-5513,9148,3829,268438473
3180,-12784,-19060,-6538,7252,3765,268438473
4312,-10840,-19536,-6197,5188,4503,268438473
5204,-10100,-20504,-3342,3315,5681,268438473
5000,-8332,-20584,621,2162,7090,268438473
4876,-7556,-19644,6952,619,7266,268438473
4916,-7152,-17828,13104,-673,7589,268438473
4116,-7292,-16044,18944,196,9133,268438473
2084,-7420,-14528,26964,2471,9291,268438473
1908,-9352,-11140,32767,4749,8167,268438473
1804,-9936,-8240,32767,6940,9396,268438473
556,-10576,-5268,32767,9645,10787,268438473
172,-13008,-2936,32767,14176,12306,268438473
-1908,-10752,-784,32767,16434,14141,268438473
-3912,-10824,620,32767,16933,13730,268438473
-5968,-10244,2560,32767,16547,10444,268438473
-5432,-12892,5952,32767,9708,5029,268438473
-4028,-10992,7868,32767,6086,3141,268438473
-4588,-9352,8240,31937,4228,4869,268438473
-6984,-8084,10304,29069,3805,3947,268438473
-7292,-9172,12944,30887,1157,515,268438473
-5312,-7240,13048,31902,2006,-988,268438473
-5032,-6396,12184,32564,2612,33,268438473
-5688,-4036,11376,30103,-1366,227,268438473
-6764,-4392,14812,26128,-9253,-1086,268438473
-3652,-3792,15684,22615,-12994,-2273,268438473
-3900,-2268,16924,19735,-11455,-3914,268438473
-2992,-2932,19608,18101,-9557,-3903,268438473
-2960,-2156,21648,15104,-7787,-2096,268438473
-1924,1692,24416,9413,-2560,1125,268438473
-2104,-1216,23696,6167,-5997,1707,268438473
-2848,-476,18252,-81,581,-1051,268438473
-2596,12,16916,-1827,3009,-305,268438473
-2376,-764,15024,-369,3711,-570,268438473
-2808,-660,14164,2696,1993,-1434,268438473
-2732,-296,14052,4490,-1634,-1937,268438473
-2424,288,13960,4719,-2629,-2284,268438473
-2124,1140,14180,3668,-121,-1835,268438473
-2188,1032,14404,2116,1665,-786,268438473
-2152,956,14592,877,1859,-323,268438473
-2444,948,14292,422,1851,-127,268438473
-1452,776,15516,523,2205,-48,268438473
-2324,1016,15064,181,2827,410,268438473
-3780,184,17124,-41,1149,470,268438473
-3576,-168,18376,1215,-2636,524,268438473
-2900,760,17832,545,-2243,-704,268438473
-2008,1044,16580,-476,1022,-2167,268438473
-2096,1444,16976,1326,4243,-1438,268438473
-3128,1040,16040,2046,4578,-919,268438473
-3748,1276,15080,788,2504,-425,268438473
-4036,1320,14980,495,1314,399,268438473
-4388,1192,15400,734,808,633,268438473
-4556,1212,14848,-86,-800,499,268438473
-4612,788,15216,-571,-1981,449,268438473
-4096,980,15320,-221,-2801,709,268438473
-2468,1636,14964,-176,-2832,879,268438473
-3148,972,16224,-292,-2349,792,268438473
-2772,1024,16224,-197,-1278,527,268438473
-2696,1152,16024,-635,-463,455,268438473
-2740,804,15768,-775,-199,511,268438473
-2804,944,15564,-400,-210,598,268438473
-3128,868,15500,-259,-767,507,268438473
-3164,1004,15444,-208,-956,604,268438473
-3244,992,15720,-419,-1378,547,268438473
-2800,1056,15644,-513,-1794,535,268438473
-2552,644,15688,-242,-1875,863,268438473
-2744,800,15776,290,-1669,1153,268438473
-2332,664,15788,640,-1824,1100,268438473
-2252,972,16028,877,-394,1152,268438473
-2048,1072,16124,980,461,1118,268438473
-2344,1432,15944,834,979,1205,268438473
-2472,1292,15824,874,1879,1428,268438473
-2728,1536,15704,641,1686,1686,268438473
-2984,1452,15836,353,800,1973,268438473
-3164,1456,15684,173,363,2060,268438473
-3600,1196,15568,144,185,1466,268438473
-3572,1332,15836,34,374,672,268438473
-3612,1368,15596,352,569,-370,268438473
-3308,1512,15744,537,387,-934,268438473
-3084,1624,16492,452,190,-1137,268438473
-3044,2684,18612,-2823,-2249,-1944,268438473
-3972,2516,22428,-11344,1355,-3608,268438473
-3280,3624,23232,-22359,5452,-4543,268438473
-4284,2708,18140,-32768,11883,-4161,268438473
-5052,672,12296,-32768,10225,-1010,268438473
-3860,-1780,10908,-32768,8834,1363,268438473
-6080,-5692,9944,-32768,7891,169,268438473
-6072,-9064,10220,-29977,7643,-4931,268438473
-5612,-10604,8232,-20506,5184,-7690,268438473
-4436,-11684,6468,-13308,223,-7076,268438473
-4128,-11456,5964,-6886,-1796,-5449,268438473
-3768,-12128,6356,-1262,-1635,-4480,268438473
-3448,-12640,7356,3176,-3452,-4175,268438473
-3176,-12812,8148,6118,-4490,-3774,268438473
-2648,-12144,9436,8541,-5531,-2500,268438473
-2604,-11548,10956,8107,-4903,-923,268438473
-2560,-10836,12016,5316,-2294,30,268438473
-3140,-11012,13144,3024,-1061,869,268438473
-3556,-10652,13360,1971,-37,1245,268438473
-3636,-10048,12016,1029,974,1187,268438473
-3984,-9956,11424,338,822,805,268438473
-4300,-10284,11760,507,-271,225,268438473
-3964,-10060,11580,815,-559,-234,268438473
-3904,-10172,11168,995,-323,-512,268438473
-3636,-10424,10912,1995,-512,-672,268438473
-3424,-10520,10100,4609,-117,-735,268438473
-3172,-10416,10528,8819,16,-478,268438473
-3356,-10600,10084,13337,-1131,125,268438473
-2448,-9360,10364,17638,-707,1248,268438473
-2692,-8076,11380,23085,-332,2984,268438473
-3044,-6828,12560,29078,-3094,4912,268438473
-3072,-5600,13096,32473,-8439,5413,268438473
-2372,-3528,15236,32767,-11176,5416,268438473
-1908,-1020,17968,32448,-10581,4755,268438473
-2036,2368,17712,22285,1949,3051,268438473
-4036,1756,19652,10536,3248,1743,268438473
-3520,4340,20016,1907,2133,2498,268438473
-4284,3476,17524,-2443,2708,2514,268438473
-4572,3008,15452,-4343,1601,1861,268438473
-4312,1796,14760,-4055,-223,510,268438473
-3868,1192,14740,-2081,-924,-1513,268438473
-3172,560,14840,-48,-1239,-2285,268438473
-2452,260,15352,1048,-1659,-2094,268438473
-1988,196,15752,1418,-1806,-1336,268438473
-1884,292,16316,1164,-811,-646,268438473
-2020,436,16396,554,59,-56,268438473
-2272,632,16044,-45,348,454,268438473
-2704,892,15652,-2,492,634,268438473
-2908,1032,15556,332,283,482,268438473
-3020,1192,15696,630,42,97,268438473
-2876,1140,15652,650,-202,-255,268438473
-2836,1096,16148,307,-328,-309,268438473
-2748,984,15836,-123,-413,-228,268438473
-2660,864,15792,-171,-202,-201,268438473
-2676,828,15808,-121,-140,-116,268438473
-2748,828,15768,1,-121,-70,268438473
-2608,864,15720,199,-81,12,268438473
-2632,824,15936,168,-168,59,268438473
-2760,988,15788,88,-5,-56,268438473
-2844,1016,15744,-6,-204,-51,268438473
-2784,1012,15804,-61,-253,-97,268438473
-2620,956,15828,146,-69,-82,268438473
-2684,964,15764,149,-46,-110,268438473
-2736,992,15888,55,-141,-57,268438473
-2756,860,15884,-72,-242,-34,268438473
-2736,1044,15732,-19,-285,-46,268438473
-2824,1036,15880,0,-320,-37,268438473
-2604,984,15536,44,-190,-95,268438473
-2700,1028,15760,2,-364,-32,268438473
-2840,956,15660,-8,-523,-31,268438473
-2840,928,15920,-162,-938,-102,268438473
-2492,1028,15852,-340,-980,-128,268438473
-2356,820,15688,-627,-1149,70,268438473
-2640,784,15544,-660,-846,202,268438473
-2680,924,15804,-222,-590,229,268438473
-2720,936,15728,220,-262,26,268438473
-2764,1076,15956,429,246,-185,268438473
-2580,1108,16120,-71,-169,-357,268438473
-2568,980,15880,-143,-30,-363,268438473
-2472,820,15900,-424,-239,-309,268438473
-2388,820,16068,-528,-481,-217,268438473
-2404,700,16096,-689,-437,-81,268438473
-2604,888,15820,-757,-374,65,268438473
-2372,756,15592,-1234,-1265,369,268438473
-2380,688,15856,-947,-1009,680,268438473
-2600,680,15696,-118,-234,595,268438473
-2556,764,16068,-492,-723,175,268438473
-2596,700,16048,-1456,-1201,-189,268438473
-2560,668,16056,-1894,-1069,-4,268438473
-2252,516,15972,-2103,-1624,325,268438473
-2072,392,16092,-2220,-1456,393,268438473
-2136,256,16168,-2429,-1286,-196,268438473
-1984,20,15836,-2163,-1309,-367,268438473
-1732,-192,15568,-1974,-2091,-370,268438473
-1760,-468,15812,-1510,-2119,-152,268438473
-1700,-388,16140,-1095,-2134,146,268438473
-1492,-292,16272,-1368,-2153,-91,268438473
-1624,-52,16328,-2097,-2073,-294,268438473
-1640,-228,16420,-3165,-2482,-387,268438473
-1592,-500,16056,-4168,-2020,-357,268438473
-1616,-764,16432,-4702,-2238,-220,268438473
-1192,-960,16156,-5494,-2497,-194,268438473
-1264,-1448,16764,-6136,-3221,-85,268438473
-184,-1804,16488,-7888,-3418,-59,268438473
32,-2464,16684,-9117,-3124,619,268438473
472,-3028,15840,-10578,-5454,1202,268438473
640,-3332,15868,-10660,-8357,1807,268438473
-8,-3616,15888,-9693,-6372,3143,268438473
68,-4040,14748,-6705,-6921,-244,268438473
-8,-4556,14416,-3522,-4705,-2836,268438473
1016,-4836,14284,-1441,-5656,-2884,268438473
1432,-4540,14892,-373,-6411,-2111,268438473
1492,-4404,15220,1024,-5089,-2525,268438473
1932,-4524,15296,2871,-2964,-3156,268438473
2416,-4828,14896,3561,-2175,-3274,268438473
2960,-4732,15644,2599,-2526,-2478,268438473
3484,-4384,16712,1339,-2323,-1311,268438473
3380,-3944,16580,352,-563,74,268438473
3188,-3804,15892,-815,238,816,268438473
2624,-4200,15308,-1369,-200,862,268438473
2372,-3940,15256,-791,374,540,268438473
2032,-4140,14980,70,931,112,268438473
2112,-3944,15356,471,520,-572,268438473
2032,-4140,15652,897,1040,-1454,268438473
2432,-3960,15816,653,1040,-1691,268438473
2704,-4076,15772,170,922,-1410,268438473
2620,-3532,15608,-350,392,-1356,268438473
2336,-4324,15452,-714,-1489,-1435,268438473
2576,-3856,15424,-224,-111,-1176,268438473
2608,-3884,15196,501,-610,-607,268438473
2544,-4064,15516,570,-944,43,268438473
2756,-4152,15588,350,-1371,75,268438473
2612,-4240,15288,-433,-2091,94,268438473
2984,-4620,15344,-1117,-3101,-106,268438473
2876,-3688,15204,-1557,-2296,-984,268438473
2828,-4580,16596,-2419,-1568,-2243,268438473
2864,-4136,15692,-3326,-1428,-3124,268438473
3004,-4220,16064,-4190,-2645,-3460,268438473
3532,-4372,15596,-5446,-3223,-3515,268438473
3740,-4096,15576,-6959,-4703,-3682,268438473
4420,-5156,14716,-8289,-6655,-3052,268438473
4844,-5812,14792,-10154,-8462,-4799,268438473
6112,-6760,14528,-10461,-7626,-3651,268438473
5804,-6796,14308,-9821,-5610,-3303,268438473
5292,-6644,13504,-10781,-11876,-7081,268438473
6160,-6812,13064,-8719,-10145,-3134,268438473
7460,-7392,11720,-5712,-12533,-2004,268438473
7400,-6656,12712,-1985,-6887,329,268438473
7860,-8364,12108,2020,-1,1344,268438473
7436,-8704,11528,3293,3918,1246,268438473
6472,-7944,10172,2937,4724,-1030,268438473
6708,-7352,12116,3706,-2585,-2077,268438473
7620,-6528,13848,3334,-5662,-1986,268438473
7736,-6256,13248,1899,-4990,-939,268438473
7548,-6756,12932,-355,-5753,245,268438473
8052,-6948,12500,-1615,-10073,545,268438473
8192,-7696,12644,-2275,-13188,-859,268438473
8312,-6924,12876,-1259,-9743,-2855,268438473
8288,-6544,11648,-2413,-7605,-3288,268438473
8844,-6676,11580,-2555,-8768,-3990,268438473
10184,-6460,11668,-2157,-10359,-2967,268438473
11016,-7100,11132,-2216,-8925,-3110,268438473
11024,-6496,10096,-2488,-7497,-2775,268438473
10928,-6856,9796,-2717,-7098,-2137,268438473
10956,-6984,9556,-2643,-4959,-3002,268438473
11576,-7312,8980,-2950,-5296,-3228,268438473
12064,-6604,8828,-3434,-6556,-3015,268438473
12724,-6604,8556,-3535,-8418,-1866,268438473
13072,-7076,8036,-3810,-11924,-771,268438473
13388,-7100,7528,-3426,-11845,-240,268438473
13776,-7084,7076,-3436,-15438,336,268438473
13920,-7540,6712,-3490,-14863,834,268438473
13420,-7324,5148,-3342,-13247,1051,268438473
13768,-7536,4936,-2277,-13274,581,268438473
14148,-7484,4360,-1690,-11960,324,268438473
14260,-7656,3876,-1440,-10257,292,268438473
14108,-7484,3492,-1864,-12978,127,268438473
14936,-7572,3208,-2649,-14605,-568,268438473
14860,-7924,1408,-3628,-14222,-28,268438473
16092,-5116,884,-4157,-16870,234,268438473
13744,-8972,-616,-5211,-24280,168,268438473
14376,-7556,-1640,-6332,-28353,6,268438473
14344,-8052,-3620,-6843,-24062,-33,268438473
14208,-7556,-5320,-5782,-22975,107,268438473
13940,-7420,-6132,-4347,-19085,-596,268438473
13108,-7464,-6352,-3073,-13104,-1573,268438473
13336,-6808,-7148,-3220,-13254,-2148,268438473
13812,-7840,-7544,-4095,-12154,-1676,268438473
13432,-7000,-8156,-5176,-11644,-791,268438473
13664,-6848,-9136,-5747,-11125,-843,268438473
13148,-7668,-10080,-6214,-12203,-339,268438473
12644,-6712,-10836,-6563,-11765,40,268438473
12176,-6332,-11616,-6984,-11443,355,268438473
11784,-5596,-12688,-5759,-9722,249,268438473
11400,-5712,-12212,-4800,-11027,875,268438473
9948,-7112,-11384,-6012,-13255,1127,268438473
9516,-6076,-12692,-6200,-9941,-26,268438473
9888,-6000,-13548,-6614,-10489,-483,268438473
9932,-5788,-14280,-6301,-8826,-715,268438473
10196,-4924,-14252,-6552,-10623,-315,268438473
10252,-4732,-15020,-7211,-12410,1023,268438473
9168,-3748,-15164,-6785,-13328,1964,268438473
7928,-3272,-15532,-6095,-12989,2274,268438473
6972,-2656,-16140,-5408,-11055,1844,268438473
7460,-2884,-16680,-4068,-7757,1702,268438473
5912,-2908,-16564,-2484,-5449,1919,268438473
5428,-3092,-15972,-2009,-3012,1351,268438473
5812,-2928,-15784,-2160,-2996,311,268438473
5976,-2828,-16088,-2180,-2313,348,268438473
6188,-2768,-16572,-1773,-2670,647,268438473
5944,-2784,-16724,-1004,-2313,404,268438473
5704,-2996,-16360,-315,-905,361,268438473
5344,-2924,-16488,-130,24,288,268438473
5288,-3008,-16436,-148,213,-29,268438473
5404,-3336,-16428,192,338,-43,268438473
5396,-3192,-16432,157,1114,111,268438473
5256,-2996,-16852,-121,1061,-4,268438473
5520,-2740,-16780,-232,534,-388,268438473
5580,-2788,-17304,41,937,-301,268438473
5880,-2892,-16656,478,493,-410,268438473
6008,-2972,-16084,480,891,-255,268438473
5912,-3092,-16232,90,466,-14,268438473
5736,-3032,-16516,-121,401,22,268438473
5844,-2896,-16748,-181,-682,-330,268438473
6104,-3020,-16616,-270,-580,-374,268438473
6016,-2916,-16924,-555,-537,-245,268438473
6120,-3136,-16812,-650,-696,-38,268438473
5592,-2820,-17212,-500,-59,197,268438473
5788,-2944,-16916,-298,-428,21,268438473
5752,-2836,-16692,-353,-277,-11,268438473
5884,-2696,-16620,-444,-564,-57,268438473
5864,-2788,-16596,-336,-414,-21,268438473
5816,-2948,-16200,-273,61,-11,268438473
5824,-2768,-16136,-279,21,-64,268438473
5812,-2920,-16268,-261,14,15,268438473
5792,-2688,-16504,-304,-532,-179,268438473
5964,-2752,-16712,-84,-373,-129,268438473
5824,-2680,-16420,195,-305,-162,268438473
5928,-2724,-16468,171,-407,-114,268438473
5652,-2708,-16668,177,75,-380,268438473
5900,-2776,-16896,94,-735,-630,268438473
6100,-3008,-16772,23,-395,-111,268438473
5260,-2940,-16852,304,509,375,268438473
5124,-2708,-16664,313,521,-79,268438473
5648,-2784,-16352,72,-36,-369,268438473
5696,-2928,-16340,112,640,-428,268438473
6028,-2768,-16400,168,269,-354,268438473
5980,-2912,-16336,65,650,-102,268438473
6044,-2776,-16432,-119,-375,-355,268438473
6520,-2844,-16592,22,-447,-147,268438473
6100,-2776,-16804,410,-332,264,268438473
5892,-2852,-16712,540,-265,89,268438473
5812,-2828,-16800,504,-317,153,268438473
5408,-3012,-16728,241,391,45,268438473
5580,-2956,-16540,-58,245,-310,268438473
6152,-2896,-16848,-162,476,-269,268438473
6296,-2744,-16956,7,211,170,268438473
6184,-2828,-16552,288,396,222,268438473
6228,-2820,-16528,148,964,463,268438473
6188,-2824,-16432,360,696,187,268438473
6380,-2628,-16540,512,1614,444,268438473
6328,-2904,-16332,789,946,546,268438473
6012,-3060,-16280,1229,2484,511,268438473
6080,-3000,-16284,921,2275,233,268438473
6428,-3180,-16168,620,490,-53,268438473
6668,-3364,-16136,761,1820,-151,268438473
6824,-3344,-16164,743,909,-135,268438473
7076,-3608,-16000,573,655,-63,268438473
6892,-3532,-16244,597,905,237,268438473
6836,-3564,-16184,691,261,203,268438473
6844,-3532,-15904,745,564,208,268438473
6732,-3576,-15864,295,797,161,268438473
6888,-3584,-16152,-116,-40,51,268438473
6732,-3628,-16268,127,368,126,268438473
6584,-3544,-16116,256,128,-44,268438473
6896,-3524,-16072,142,163,11,268438473
6956,-3540,-15924,57,64,202,268438473
6640,-3588,-15876,346,1160,140,268438473
6796,-3328,-15684,380,724,-208,268438473
6984,-3384,-16040,236,1014,-238,268438473
7208,-3528,-15796,235,645,4,268438473
7008,-3624,-15604,278,997,27,268438473
7048,-3396,-15584,329,1546,-177,268438473
7240,-3536,-15948,255,1952,-126,268438473
7436,-3432,-16152,272,831,-501,268438473
8040,-3564,-15896,675,1870,-129,268438473
7700,-3376,-15880,913,3891,399,268438473
7936,-3484,-15580,1521,11269,928,268438473
7772,-3768,-15444,2719,27591,1903,268438473
8472,-3652,-15444,4103,32767,1552,268438473
11624,-3968,-12724,5900,32767,929,268438473
14848,-3912,-9012,8609,32767,3219,268438473
16440,-4664,-6408,12496,32767,5667,268438473
15392,-4700,-2380,16152,32767,6918,268438473
14308,-4512,2284,16593,32767,7285,268438473
11416,-5068,6024,16573,32767,6600,268438473
9444,-5736,5600,16145,32767,7933,268438473
3380,-4004,12208,11928,32767,7143,268438473
84,-4336,12676,8061,32767,7366,268438473
-2800,-4180,13808,9082,32767,6954,268438473
-3204,-2576,14720,10485,25368,6922,268438473
-3684,-2268,27208,29197,11554,5746,268438473
-832,1364,17492,6177,3058,3436,268438473
-3696,-1444,20340,-6866,4662,1425,268438473
-3632,-1960,17160,-6337,6188,1456,268438473
-3200,-1824,13428,-7938,5506,2017,268438473
-3896,-2804,13200,-5822,4048,3195,268438473
-5096,-2476,12668,-1404,4539,3215,268438473
-6016,-2272,13300,1006,3200,2173,268438473
-6736,-2264,14480,2967,2197,1203,268438473
-6484,-1928,15108,2325,-591,54,268438473
-6084,-1760,15380,1502,-2160,-1045,268438473
-5208,-1996,15160,537,-2603,-1484,268438473
-4300,-1984,15176,809,-1953,-1213,268438473
-3732,-2036,15076,703,-2288,-636,268438473
-3776,-2064,15320,1202,-1554,317,268438473
-4056,-1648,15364,1234,-1078,541,268438473
-4296,-1764,15480,1169,44,430,268438473
-4172,-1504,15840,750,68,350,268438473
-4476,-1576,15460,470,236,439,268438473
-4560,-1576,15468,301,76,574,268438473
-4648,-1540,14884,182,379,477,268438473
-5016,-1248,15444,398,696,-71,268438473
-5416,-1192,15728,416,536,-832,268438473
-5208,-1508,15776,75,249,-1266,268438473
-4520,-1588,15084,-372,1182,-1291,268438473
-4344,-1616,15172,-266,1097,-1147,268438473
-4512,-720,14764,171,951,-1196,268438473
-4532,-2140,15144,113,1127,-1400,268438473
-5308,-1316,14984,-16,619,-956,268438473
-5468,-1732,15020,81,951,-846,268438473
-5536,-1744,14804,67,364,-943,268438473
-4904,-1636,14916,291,-230,-1535,268438473
-4884,-1788,15144,354,-668,-2057,268438473
-4664,-1716,15156,408,-690,-1980,268438473
-4220,-1924,15156,729,-294,-1737,268438473
-4212,-1936,15000,925,-210,-1288,268438473
-4248,-2004,15020,987,-116,-617,268438473
-4252,-1704,15324,589,-429,25,268438473
-4460,-1576,15440,245,-192,465,268438473
-4556,-1540,15528,-113,15,649,268438473
-4668,-1488,15192,-436,-158,528,268438473
-4808,-1560,15092,-307,-436,483,268438473
-4928,-1508,15004,-108,-174,352,268438473
-5012,-1544,15180,78,-110,199,268438473
-4920,-1680,15124,31,-373,53,268438473
-4928,-1696,15132,-199,-818,52,268438473
-4688,-1664,15204,-74,-675,8,268438473
-4764,-1644,15184,39,-781,120,268438473
-4692,-1492,15200,-3,-1131,188,268438473
-4448,-1612,15320,-197,-1986,438,268438473
-4572,-1580,15256,-381,-2676,785,268438473
-4296,-1656,15264,-757,-3583,996,268438473
-4212,-1616,15856,-1535,-5559,1479,268438473
-3892,-1528,15700,-2509,-6686,1642,268438473
-4104,-1304,16516,-3506,-8886,1771,268438473
-3408,-1572,16812,-5208,-11696,2013,268438473
-2364,-2200,16008,-5940,-14223,1741,268438473
-1620,-1648,15968,-7647,-17920,767,268438473
-1808,-3688,17156,-9810,-22877,1097,268438473
-588,-2944,16272,-10771,-25229,1672,268438473
1392,-3252,15248,-13121,-32427,461,268438473
3760,-4804,14048,-12740,-30224,-278,268438473
5936,-5332,12288,-9822,-24652,-1598,268438473
7424,-6612,12240,-6029,-19967,-2086,268438473
8500,-6632,11796,-1856,-17947,-1892,268438473
8704,-6264,12296,-483,-21494,-449,268438473
9496,-6944,12980,-658,-19975,488,268438473
9152,-6316,12692,-67,-14566,361,268438473
9616,-6048,11252,-2122,-16398,-515,268438473
10840,-6188,11092,-4489,-24228,-1732,268438473
13028,-6312,9844,-4161,-26924,-2268,268438473
13868,-6712,8508,-3233,-25267,-209,268438473
13052,-6384,7472,-3201,-24229,1990,268438473
13244,-6260,6160,-4284,-26780,1920,268438473
13616,-6668,4376,-3890,-25693,248,268438473
13460,-6304,2284,-2320,-22864,-2541,268438473
14720,-6216,2028,-1351,-20740,-3597,268438473
15108,-6420,1180,-952,-19909,-2854,268438473
16044,-6280,864,-647,-21041,-2353,268438473
16624,-6700,-412,-1558,-19762,-1660,268438473
16012,-6484,-1716,-1135,-13761,-2243,268438473
16096,-6760,-2216,-1393,-18571,-3366,268438473
15848,-5676,-2944,-2136,-20975,-3460,268438473
16464,-5732,-4112,-3364,-21660,-2237,268438473
15112,-5568,-5580,-4833,-17720,-2609,268438473
14476,-4948,-6356,-5922,-19722,-2770,268438473
13892,-4760,-7648,-6332,-20496,-771,268438473
13652,-4500,-8304,-6821,-21096,-542,268438473
13076,-5184,-9416,-5616,-14125,-1429,268438473
13160,-4024,-10456,-4516,-10996,-1261,268438473
12776,-4232,-10476,-4055,-11584,-435,268438473
12000,-4260,-10876,-3746,-9955,-651,268438473
11228,-4016,-11184,-4638,-8267,-1868,268438473
10868,-3832,-12644,-5433,-8585,-1638,268438473
11480,-3260,-13272,-5833,-10313,-1018,268438473
11224,-2596,-14360,-5307,-13092,171,268438473
11448,-2580,-15160,-3166,-13070,1697,268438473
10680,-3092,-14904,-1769,-13061,2259,268438473
10376,-3168,-15332,-3989,-22081,187,268438473
9360,-3636,-15492,-2683,-13447,3070,268438473
8444,-2044,-16856,-890,-11331,1665,268438473
7552,-2852,-16800,1277,-4313,663,268438473
7520,-2788,-16240,2129,-4399,1767,268438473
7048,-3120,-16116,1799,-4469,1496,268438473
6752,-3328,-15564,802,-4921,1681,268438473
6220,-3408,-16000,256,-2539,1486,268438473
8400,-1364,-14768,-537,-4091,-168,268438473
6728,-4596,-16368,-2149,-7475,585,268438473
6212,-3288,-16856,209,-2502,459,268438473
5628,-3620,-16380,888,1107,227,268438473
5572,-2976,-16272,629,296,25,268438473
5824,-3540,-16300,80,1306,-106,268438473
5928,-3092,-16704,309,2799,-162,268438473
6460,-3348,-16228,482,2332,-238,268438473
6728,-3268,-16540,350,1529,136,268438473
6528,-3372,-16132,474,1290,406,268438473
6080,-3292,-16024,308,1329,24,268438473
6660,-3356,-15664,-174,565,-693,268438473
6832,-3336,-15956,-419,-1073,-414,268438473
6608,-3616,-16320,-280,-89,-105,268438473
6496,-3192,-16336,-68,176,-136,268438473
6388,-3188,-16272,-66,-640,-160,268438473
6732,-3284,-16436,-227,12,-224,268438473
6688,-3272,-16436,151,1429,33,268438473
6624,-3340,-16116,258,1403,299,268438473
6356,-3504,-15748,335,2277,76,268438473
6584,-3376,-15776,-228,2341,-288,268438473
6724,-3440,-15868,-155,2815,-363,268438473
7288,-3240,-15688,-227,2509,-567,268438473
7812,-3308,-16156,-335,1801,-423,268438473
7892,-3336,-16300,55,2667,-186,268438473
8180,-3632,-16020,621,4964,-264,268438473
8524,-3680,-15952,1553,14179,-143,268438473
9040,-3940,-16180,2859,30956,455,268438473
10532,-3836,-15728,5041,32767,1477,268438473
12812,-3956,-14012,7991,32767,2347,268438473
14852,-4476,-9816,10500,32767,3376,268438473
13900,-4456,-4492,10867,32767,2563,268438473
12992,-4636,520,11615,32767,-566,268438473
11048,-4628,6120,13172,32767,-4260,268438473
4396,-5148,12504,18239,32767,-5691,268438473
2916,-2572,13504,18321,32767,-9746,268438473
2504,-2008,16264,16311,32767,-7804,268438473
580,924,16860,11613,31339,-6617,268438473
2824,864,28520,13465,7597,-4260,268438473
300,3668,19996,10453,-18600,-192,268438473
2688,2328,13616,645,-3653,-422,268438473
2020,1012,15616,-4451,13813,-2334,268438473
492,704,16836,-3559,8878,-2294,268438473
756,328,16384,-2042,2164,-1086,268438473
1052,604,15668,-1304,1127,183,268438473
736,308,15868,-609,2677,676,268438473
336,36,16264,-690,2772,617,268438473
120,640,16340,-1082,2984,387,268438473
-32,40,16232,-1404,4237,234,268438473
-512,-316,16344,-1950,3860,-107,268438473
-740,12,16040,-1632,2683,-460,268438473
-836,-28,15312,-1466,3546,-881,268438473
-728,-200,15376,-1107,5849,-1405,268438473
-1168,-76,15800,-328,6149,-1870,268438473
-1936,-12,16420,167,4670,-1649,268438473
-1804,-540,16968,576,527,-1451,268438473
-1032,-148,14716,218,1490,-1086,268438473
-1524,328,16500,1240,1756,-595,268438473
-2296,-204,16028,1548,-2102,813,268438473
-1760,4,16628,1265,-2042,807,268438473
-1448,280,16320,636,-1660,-73,268438473
-1296,296,16384,146,-1005,-521,268438473
-1144,384,15820,19,-1070,-312,268438473
-1216,160,16068,262,-762,96,268438473
-1388,16,16168,141,-957,339,268438473
-1448,216,16044,-38,-712,430,268438473
-1292,188,15984,67,300,262,268438473
-1432,208,16136,155,659,-285,268438473
-1404,104,16144,64,218,-629,268438473
-1480,36,16164,206,259,-468,268438473
-1448,44,15964,315,643,-440,268438473
-1676,480,16088,126,123,-650,268438473
-1212,244,16144,2,457,-935,268438473
-1316,148,16292,-125,606,-537,268438473
-1528,368,15808,-295,-291,-32,268438473
-1824,288,16184,-342,-1135,438,268438473
-1624,148,16052,-849,-2781,528,268438473
-1392,-120,16496,-1147,-4738,704,268438473
-1352,176,16092,-865,-2237,617,268438473
-1272,-32,15720,-1384,-2312,420,268438473
-1228,-228,15576,-767,-2248,593,268438473
-692,-424,15748,-252,-1808,502,268438473
-412,36,15932,97,-348,-84,268438473
-656,-88,16140,42,1067,-121,268438473
-760,-108,16280,-318,520,149,268438473
-880,-140,16156,-1009,175,797,268438473
-988,-116,15996,-1350,1298,1240,268438473
-1100,-476,16352,-1817,1365,1100,268438473
-1156,-188,16348,-1883,2535,448,268438473
-1308,-496,15824,-1906,3926,-481,268438473
-1620,-364,15560,-1582,4780,-1291,268438473
-1748,-632,15636,-827,6138,-1015,268438473
-2020,-636,14784,-968,9140,-1368,268438473
-3132,-332,16496,372,9531,-925,268438473
-2124,-1188,16936,802,6663,-2339,268438473
-3832,572,15792,200,8029,-2955,268438473
-5012,-24,16576,-1857,2133,1849,268438473
-3780,-156,17648,-3217,-4178,3565,268438473
-4440,-680,16112,-7296,-9651,5217,268438473
-3080,-528,14568,-9311,-8325,5725,268438473
-3204,-2356,14312,-9040,-2244,5398,268438473
-3912,-3880,17396,-6029,-9582,5100,268438473
-556,-60,10888,-2852,-4115,5966,268438473
-3356,-2716,13664,763,3623,8499,268438473
-3060,-3428,13788,3824,2365,10958,268438473
-2708,-2988,15948,5917,1966,9456,268438473
-4124,-356,18148,4552,-2092,5598,268438473
-2376,-248,20588,700,-356,3345,268438473
-4072,-2440,17908,-3244,2506,529,268438473
-2780,-432,15668,-5895,-5290,1492,268438473
-1976,-2880,15040,-6043,-672,3223,268438473
-2048,-2168,14052,-4775,-1387,3766,268438473
-1800,-1512,14348,-3325,-293,4361,268438473
-2660,-1096,15148,-2387,3190,6084,268438473
-7792,-1480,18964,834,1860,6305,268438473
-1876,-2600,16404,694,3347,490,268438473
-4096,-5792,16892,-4233,2374,-2721,268438473
-4832,-1252,16980,-8565,-1150,-1728,268438473
-4840,-3424,17528,-11084,4635,2829,268438473
-3380,-3080,15324,-11535,12320,6990,268438473
-4400,-3252,14644,-12211,17488,8640,268438473
-4788,-4872,15464,-12953,19330,10200,268438473
-7812,-5036,13756,-14540,16121,12463,268438473
-8152,-6364,10444,-18468,15617,8957,268438473
-4720,-5572,9316,-19964,12688,7413,268438473
-4972,-5968,8220,-19856,4237,4066,268438473
-6808,-9200,10288,-15573,-4204,1135,268438473
-11736,-9496,11052,-8478,-13800,-2318,268438473
-3884,-8100,12656,-1065,-16229,-7401,268438473
-8060,-7172,10920,3478,-20623,-12640,268438473
-6896,-7004,12608,8693,-15659,-12789,268438473
-5812,-7956,13908,10493,-18851,-12993,268438473
-3640,-6148,12636,10338,-18606,-13062,268438473
-2340,-9024,14724,9112,-9758,-9006,268438473
-320,-6592,15024,4534,-5082,-3859,268438473
-2124,-8152,15280,3981,-4126,-404,268438473
-812,-4740,15176,5842,-1147,1249,268438473
-2968,-7360,14904,4681,-205,840,268438473
-1988,-6848,15308,4402,-1613,99,268438473
-1948,-6836,15844,8517,227,524,268438473
-1788,-5928,14504,10220,5347,1909,268438473
-3152,-5704,16368,10642,3742,4830,268438473
6568,5980,4584,21972,-17770,-1266,268438473
-2804,-6708,15344,2058,2395,260,268438473
-3060,-2960,18316,-3408,11419,-598,268438473
-4364,-3864,15368,-5353,10397,-2151,268438473
-2560,-3592,14472,-1390,6514,-3502,268438473
-2920,-3628,15108,2098,2126,-1844,268438473
-2932,-3424,16040,1499,3831,181,268438473
-3604,-3656,16428,-1109,1314,1193,268438473
-3840,-4184,16352,-2107,2472,-930,268438473
-3056,-4056,15928,-2697,3250,-2791,268438473
-3040,-3908,15500,-1745,4463,-2928,268438473
-2808,-3676,13472,1007,5388,-2600,268438473
-3644,-4500,13716,3781,2096,-1303,268438473
-3596,-4280,14240,6871,7153,736,268438473
-5172,-3312,14340,8783,17614,737,268438473
-6272,-2652,15004,7882,23998,-1389,268438473
-7464,-2640,14796,6908,28255,-1992,268438473
-9172,-1640,15548,6549,30489,-968,268438473
-9580,-1240,14224,4922,30018,-2138,268438473
-12184,-1592,11796,4550,32767,-4245,268438473
-11780,-1960,8960,5450,32767,-6223,268438473
-12444,-2472,7740,5480,29466,-6006,268438473
-13000,-2584,6328,5538,25169,-4608,268438473
-14028,-2036,5568,5802,22113,-3220,268438473
-13992,-2648,5408,5054,19210,-2846,268438473
-14548,-2668,4352,3766,17549,-2958,268438473
-14500,-2868,3596,3381,16433,-2548,268438473
-14604,-3008,2808,3347,17639,-1671,268438473
-14988,-3012,2048,3021,18174,-697,268438473
-15708,-2704,976,2637,19369,-533,268438473
-15656,-2712,-516,2511,20186,-1011,268438473
-15316,-2732,-2204,2276,18553,-743,268438473
-15272,-2888,-2760,2305,16919,-106,268438473
-15504,-2872,-3624,2370,16782,84,268438473
-15036,-2852,-4728,1913,18231,-248,268438473
-14704,-3076,-5336,1034,17822,-341,268438473
-14324,-3040,-6232,147,17477,-145,268438473
-14044,-2888,-7492,-391,17552,14,268438473
-13664,-2800,-8468,-214,18417,-305,268438473
-12700,-2980,-8956,-227,17608,-320,268438473
-12288,-3000,-9868,-608,15599,-557,268438473
-11732,-3016,-10220,-1045,15224,-526,268438473
-11284,-3076,-11484,-1214,15284,-697,268438473
-11116,-3040,-11628,-777,15822,-483,268438473
-10680,-2712,-12404,-346,18115,-1261,268438473
-9572,-2908,-13212,92,20194,-2171,268438473
-8584,-3132,-13656,-266,20988,-1989,268438473
-8008,-3296,-14664,-1030,20162,-1426,268438473
-7176,-3040,-15492,-1454,20480,-1211,268438473
-6292,-2916,-16024,-1232,21762,-2029,268438473
-4764,-3352,-16688,-1581,20987,-3012,268438473
-3976,-3352,-17312,-1835,16692,-2447,268438473
-2724,-3252,-17340,-561,16387,-1572,268438473
-1996,-3212,-17588,-1052,13477,-1609,268438473
-1136,-3408,-17640,-1646,10300,-1125,268438473
-572,-2932,-17336,-1948,7669,141,268438473
-836,-2560,-17492,-1451,9531,509,268438473
-652,-2444,-18020,-1143,8765,-157,268438473
-24,-2908,-18004,-1141,5380,-538,268438473
412,-2584,-18112,-980,3664,-157,268438473
580,-2360,-18184,-428,3541,-93,268438473
568,-2456,-18288,-367,1692,-459,268438473
1140,-2716,-18156,-491,-1116,-365,268438473
840,-2456,-18004,122,-1340,364,268438473
484,-2268,-17732,365,-1419,241,268438473
268,-2588,-17608,-211,-2244,-255,268438473
280,-2592,-17872,-375,-2471,-240,268438473
-164,-2536,-17832,-61,-3554,-249,268438473
-140,-2512,-17868,285,-3479,-92,268438473
-364,-2616,-18084,494,-3692,-122,268438473
-512,-2868,-18232,301,-7549,-290,268438473
-556,-3044,-18664,515,-14082,151,268438473
-1988,-2696,-18100,515,-19631,827,268438473
-3596,-2672,-17856,991,-20024,331,268438473
-3992,-2900,-17488,-65,-26574,-1751,268438473
-4400,-4276,-16400,-3912,-32768,-1353,268438473
-5792,-2836,-13956,-6314,-32768,1459,268438473
-11000,196,-11956,-7047,-32768,3788,268438473
-13044,-380,-11088,-6821,-32768,612,268438473
-13700,-1308,-8240,-6000,-32768,-986,268438473
-14364,-1332,-3972,-7441,-32768,-1767,268438473
-15092,-732,152,-11403,-32768,-2872,268438473
-13208,-708,4280,-11065,-32768,-4548,268438473
-11340,-3044,10536,-5231,-32768,-3839,268438473
-6400,-2332,12404,-129,-32768,-3013,268438473
-3412,-2472,13280,1261,-32768,-1311,268438473
-456,-3752,12092,-799,-32768,2700,268438473
1904,-3868,17336,1054,-32768,5842,268438473
-144,-2896,15448,2512,-20835,6243,268438473
220,-3068,17636,1476,-12646,544,268438473
1624,-2492,18932,-732,-1863,-333,268438473
2948,-2576,16508,-1588,544,-746,268438473
3124,-2692,15496,-1589,-2278,-41,268438473
2952,-2444,15680,-1334,-3996,1188,268438473
2628,-2596,15732,-967,-2039,935,268438473
2368,-2548,15228,-569,1261,-177,268438473
2576,-2936,14952,-264,2027,-950,268438473
2760,-3032,14588,-188,-721,-272,268438473
2420,-3068,15004,358,-721,405,268438473
1984,-2884,15448,702,1195,-164,268438473
1932,-2600,15452,983,3819,-1117,268438473
2120,-2560,15504,1158,3026,-1406,268438473
2480,-2392,15720,781,-467,-681,268438473
2532,-2448,16224,695,-1783,208,268438473
2048,-2444,16692,549,385,266,268438473
2072,-2076,16500,127,2738,-414,268438473
2132,-2168,15904,38,2725,-405,268438473
2328,-2520,15544,342,2206,-370,268438473
2200,-2596,15824,286,510,114,268438473
2096,-2224,15764,437,952,422,268438473
1732,-2216,15704,714,1512,354,268438473
1496,-2196,15800,1103,1617,12,268438473
1424,-2140,16176,1077,324,68,268438473
1652,-2084,16456,649,-1242,317,268438473
1672,-2200,16756,54,-746,805,268438473
1332,-2044,16792,-563,1585,921,268438473
940,-2036,16328,-646,3530,491,268438473
748,-2140,15956,-47,6623,-424,268438473
348,-2152,15804,729,9965,-1235,268438473
-160,-2132,15996,1383,13262,-1928,268438473
-700,-2176,15896,2106,17187,-2289,268438473
-1612,-1720,15984,2433,19112,-2113,268438473
-2920,-1756,16136,3172,21233,-2192,268438473
-4204,-1616,16324,3023,22348,-2578,268438473
-5192,-1512,15760,2868,24152,-2816,268438473
-6540,-1256,15312,3101,26297,-2834,268438473
-7604,-1168,14108,2446,25815,-2780,268438473
-8660,-976,13024,1125,22305,-2332,268438473
-9516,-1268,12280,385,20224,-2032,268438473
-10152,-1556,11096,816,20240,-1638,268438473
-10668,-1520,10308,1934,20353,-1272,268438473
-11440,-1556,9532,2987,20093,-1101,268438473
-12100,-1452,8884,3932,19434,-973,268438473
-12540,-1304,8092,4856,19984,-864,268438473
-13416,-1112,7680,4897,19789,-851,268438473
-14084,-1236,6712,3678,17805,-387,268438473
-14620,-940,6048,3035,16815,-433,268438473
-14868,-1116,5044,2960,17191,-319,268438473
-15044,-924,4160,3339,18397,-454,268438473
-15160,-928,3260,3225,18343,-538,268438473
-15428,-864,2176,2556,17997,-370,268438473
-15680,-768,1048,2296,17762,-412,268438473
-15948,-904,132,1940,17776,-692,268438473
-15900,-892,-1008,2271,18136,-1086,268438473
-15416,-1088,-1856,1511,15971,-1127,268438473
-15416,-1216,-2184,-384,13129,-937,268438473
-15308,-1196,-3360,-1374,13938,-912,268438473
-15116,-1176,-4728,-467,17739,-853,268438473
-14768,-1144,-5608,335,19350,-313,268438473
-14976,-1224,-7128,730,18052,-65,268438473
-15140,-1204,-7684,1281,17243,-549,268438473
-14660,-1100,-8528,2113,18130,-1459,268438473
-13844,-1764,-9084,2105,19889,-825,268438473
-12508,-1100,-9952,1668,19186,-918,268438473
-12008,-1564,-11112,1038,18415,-1136,268438473
-11672,-1924,-11828,663,16206,-1058,268438473
-10936,-1848,-12292,553,14273,-1441,268438473
-10396,-1812,-12772,744,15060,-1944,268438473
-9796,-1852,-13204,511,16664,-2106,268438473
-9132,-1976,-13600,-421,16531,-2005,268438473
-8576,-2240,-14332,-1191,16665,-2246,268438473
-7820,-2048,-14940,-1684,16036,-2250,268438473
-7168,-2088,-15720,-1871,16480,-2005,268438473
-6152,-2124,-16844,-1968,15832,-1970,268438473
-5028,-2056,-16868,-1602,14413,-1492,268438473
-3904,-1872,-17416,-1722,13292,-1209,268438473
-3308,-1960,-17444,-2051,11245,-804,268438473
-2684,-1912,-17472,-2666,8469,-743,268438473
-2464,-1300,-17216,-3706,7450,-413,268438473
-2272,-932,-17168,-3422,13764,-834,268438473
-1044,-1108,-18212,-3367,16445,-942,268438473
-2344,-880,-17840,-2766,12716,0,268438473
-528,-1500,-18676,-1461,10648,230,268438473
-896,-924,-17648,680,10196,-259,268438473
76,-960,-17512,812,9334,-1126,268438473
1060,-1372,-17908,171,8921,-1265,268438473
2072,-516,-17648,-101,6629,-1144,268438473
1376,-1540,-18024,93,5206,-261,268438473
2240,-1228,-18052,425,3384,-442,268438473
2632,-692,-18296,453,216,-412,268438473
3196,-1340,-17728,287,-2433,332,268438473
2644,-1048,-17812,346,-1066,854,268438473
1972,-1316,-17812,67,-2129,88,268438473
2264,-1384,-17660,-305,-4007,-59,268438473
1828,-1028,-17928,-196,-4311,360,268438473
1304,-1196,-18168,-56,-4721,260,268438473
804,-1340,-18300,163,-6966,214,268438473
732,-1620,-18652,301,-13578,263,268438473
-580,-1216,-17796,43,-17391,631,268438473
-1632,-616,-17372,848,-11731,-106,268438473
-1436,-1156,-17112,-501,-10027,-1541,268438473
-1100,-1996,-17624,-3145,-20556,-2234,268438473
-3548,-1072,-16784,-4888,-32768,-1101,268438473
-6332,444,-16932,-2519,-22485,-1745,268438473
-4304,-944,-18044,69,-16900,-1648,268438473
-5692,-1560,-16320,-1899,-28348,-1231,268438473
-8632,-80,-14112,-4172,-32768,-205,268438473
-11384,280,-14688,-2641,-22147,-881,268438473
-11416,-116,-14624,-288,-14790,-1893,268438473
-10832,-72,-13336,487,-18104,-3296,268438473
-10920,-80,-12720,-1372,-30647,-3703,268438473
-12164,-44,-11020,-2449,-32768,-3710,268438473
-12960,-300,-8848,456,-32768,-2432,268438473
-13120,-152,-6880,2959,-32768,-920,268438473
-14428,-656,-4384,4427,-32768,518,268438473
-16044,-1004,-724,5198,-32768,372,268438473
-17200,-1388,2636,3120,-32768,-1748,268438473
-14996,-1064,4976,-2351,-32768,-4917,268438473
-12460,-2020,7052,-7862,-32768,-3641,268438473
-10204,-2568,9720,-9825,-32768,-535,268438473
-8292,-2516,12136,-8260,-32768,1284,268438473
-7072,-2924,14344,-7103,-32768,1621,268438473
-5460,-3076,14704,-7495,-32194,1544,268438473
-4172,-3168,14648,-10580,-32768,1985,268438473
-2288,-3960,14252,-9612,-32768,1538,268438473
-440,-4252,14484,-7240,-32768,1830,268438473
1312,-4472,14508,-5050,-29408,1948,268438473
2988,-4836,14524,-3189,-22341,1281,268438473
4148,-4944,15016,-1562,-18634,1021,268438473
4760,-5200,15236,169,-12056,296,268438473
5676,-5668,14484,610,-11059,-129,268438473
6160,-5312,14656,1170,-10108,-1215,268438473
7272,-4860,15636,2095,-2673,-606,268438473
6468,-5044,15588,2012,3203,-468,268438473
6380,-4724,14844,388,1145,-221,268438473
6412,-4624,14584,0,-1058,523,268438473
5652,-4556,14764,610,600,775,268438473
5240,-4144,14980,1072,3046,-84,268438473
5112,-4364,14656,1336,5074,-1074,268438473
5420,-4384,14364,1214,3361,-897,268438473
5300,-4364,14724,729,-16,-38,268438473
4900,-4368,15240,644,571,305,268438473
4644,-4256,15388,876,3559,-229,268438473
4452,-4200,14988,1597,6601,-930,268438473
4332,-4068,15012,1951,7837,-1228,268438473
4344,-4232,15172,1961,8680,-1017,268438473
3568,-4284,15460,2140,11339,-785,268438473
2644,-3752,15732,3219,17377,-1274,268438473
1704,-3176,15628,4263,21440,-1805,268438473
292,-3060,15832,4437,21277,-2235,268438473
1492,-3104,16688,5158,23275,-2523,268438473
-1900,-2940,15788,5315,25103,-2369,268438473
-3036,-2420,15536,5327,24894,-2080,268438473
-4504,-1892,15688,5942,24203,-1795,268438473
-5892,-1588,15412,5657,23577,-2284,268438473
-6800,-1612,15124,4676,22345,-2991,268438473
-7564,-1716,13964,3821,21340,-2861,268438473
-8240,-1728,13284,2720,20671,-2274,268438473
-9172,-1588,12820,1863,20295,-1883,268438473
-9860,-1440,11916,1820,20373,-1453,268438473
-10576,-1452,10540,2567,21460,-1187,268438473
-11484,-1532,9672,3133,22747,-557,268438473
-12468,-1388,8608,3386,23279,-268,268438473
-13252,-1048,7488,3589,23034,-663,268438473
-13820,-1112,6548,4875,24609,-926,268438473
-14140,-1060,5384,5440,25686,-547,268438473
-14908,-1104,4032,4803,24969,141,268438473
-15316,-848,2920,3958,23461,193,268438473
-15180,-1084,1692,3757,23232,-192,268438473
-15752,-808,156,4272,22757,-323,268438473
-15796,-552,-804,4359,20823,-219,268438473
-15804,-620,-1744,3673,18235,-138,268438473
-15640,-916,-2700,3243,17100,-102,268438473
-15724,-860,-3620,3169,16099,-7,268438473
-15596,-1068,-4400,2789,15711,-355,268438473
-15700,-960,-4628,1635,13398,-951,268438473
-15652,-1016,-4724,-7,12234,-1963,268438473
-14716,-1244,-5368,-2098,12497,-3057,268438473
-13912,-1380,-6820,-2851,13376,-2831,268438473
-13672,-1268,-8144,-1490,16689,-1887,268438473
-13612,-1392,-9136,-626,17835,-1210,268438473
-12844,-1368,-9940,-225,17554,-1166,268438473
-11356,-1656,-10116,-661,18918,61,268438473
-12080,-1284,-12132,-483,15718,-30,268438473
-11360,-1324,-13072,-212,14808,-684,268438473
-10696,-1672,-13536,319,13374,-802,268438473
-10168,-1608,-13884,731,13744,-952,268438473
-9676,-1744,-13916,552,13517,-954,268438473
-9208,-1616,-14364,472,14341,-1197,268438473
-8328,-1644,-14756,355,14735,-1503,268438473
-7788,-1828,-14924,-42,14170,-1441,268438473
-7320,-1632,-15408,16,13181,-1709,268438473
-6724,-1836,-16204,461,12381,-2294,268438473
-6788,-1552,-15732,1577,14343,-3383,268438473
-5456,-2028,-15860,120,15375,-5373,268438473
-3672,-2612,-16888,-1514,13925,-4732,268438473
-2876,-2532,-17580,-774,12958,-2149,268438473
-3424,-2344,-17708,824,12660,-1279,268438473
-2388,-2736,-17308,333,10060,-1108,268438473
-2300,-2388,-17520,-193,7895,-1372,268438473
-1676,-2304,-17400,9,6709,-1295,268438473
-1436,-2836,-17468,8,4980,-1008,268438473
-1204,-2720,-17400,-499,2025,-869,268438473
-552,-2892,-17920,-1338,-2175,60,268438473
-1012,-2540,-17780,-1320,-5318,1435,268438473
-2296,-2240,-17868,-599,-4458,1337,268438473
-2632,-2288,-18192,-380,-7721,95,268438473
-2440,-2876,-18240,-860,-17056,-389,268438473
-2740,-2668,-16968,-3045,-30677,989,268438473
-6548,-832,-15420,-1884,-27220,1591,268438473
-6976,-1200,-16120,-92,-15704,1318,268438473
-6168,-2540,-16200,-644,-18239,2767,268438473
-6692,-1956,-14896,-3844,-32703,4844,268438473
-10900,24,-11884,-5955,-32768,4943,268438473
-14688,580,-12160,-3550,-25124,339,268438473
-12768,-644,-11784,-1330,-14645,-3845,268438473
-11296,-1428,-11156,-4114,-27944,-2038,268438473
-13260,-304,-8864,-8003,-32768,-291,268438473
-16396,-84,-5920,-7223,-32768,-1596,268438473
-15080,-488,-5656,-6849,-29577,-3522,268438473
-15480,-568,-3764,-8718,-32495,-3241,268438473
-15492,-604,-3312,-9502,-31002,-3842,268438473
-15540,-1128,-2760,-7076,-27029,-2322,268438473
-16120,-980,-1216,-4289,-25417,-2034,268438473
-15212,-1088,1100,-3894,-28553,-3289,268438473
-14664,-1460,3036,-5407,-32768,-3343,268438473
-13980,-1764,4860,-5696,-32768,-2730,268438473
-13620,-2096,6392,-3622,-27694,-1691,268438473
-12948,-2268,7720,-1865,-19883,-1296,268438473
-12348,-2296,8664,-1797,-17048,-1412,268438473
-11584,-2392,9748,-1941,-18496,-1585,268438473
-10692,-2804,10516,-2694,-19105,-1481,268438473
-10004,-2884,11576,-2783,-16687,-860,268438473
-9048,-3000,11820,-2552,-13527,-231,268438473
-8876,-3012,12540,-4532,-20651,-444,268438473
-7564,-3428,12996,-4268,-21557,-761,268438473
-6556,-3600,13256,-2370,-15843,-300,268438473
-6068,-3304,13548,-1241,-12734,-11,268438473
-5264,-3428,14020,-2086,-16497,125,268438473
-4396,-3672,14608,-3528,-22293,180,268438473
-3936,-3684,14304,-2451,-19863,-488,268438473
-3076,-3808,14564,82,-15061,-1794,268438473
-2404,-3504,14760,1466,-13346,-1990,268438473
-2068,-3304,14912,1890,-13958,-2166,268438473
-1368,-3536,15428,3756,-11940,-3181,268438473
-424,-3216,15720,4609,-8932,-2876,268438473
168,-3108,15608,4779,-5721,-2536,268438473
-128,-2872,17268,5293,-6834,-1237,268438473
-384,-2408,19160,4196,-7950,-1443,268438473
972,-2324,18220,507,-6373,-1916,268438473
2460,-2580,15912,-2174,-8227,-1516,268438473
2396,-2796,14736,-2487,-11335,-668,268438473
2200,-2796,14308,-300,-11141,-835,268438473