ax, ay, az, gx, gy, gz, temp
-52,828,16084,-39,-215,20,268438473
32,712,16068,-49,-176,2,268438473
56,736,16188,-30,-174,24,268438473
4,856,16200,-35,-205,5,268438473
-64,828,16104,-63,-179,2,268438473
-84,876,16156,-18,-184,9,268438473
-40,788,16124,-20,-211,5,268438473
-156,816,16208,-52,-151,-4,268438473
-52,768,16272,-52,-168,-11,268438473
-100,800,16256,-34,-198,3,268438473
16,844,16220,-39,-200,16,268438473
-4,832,16296,-32,-165,3,268438473
-40,848,16240,2,-190,2,268438473
-48,892,16184,-43,-208,-9,268438473
-44,816,16184,-2,-168,-8,268438473
-12,812,16256,-9,-187,2,268438473
0,812,16200,-11,-187,0,268438473
-36,816,16248,-32,-215,20,268438473
-32,784,16152,-25,-180,14,268438473
-76,836,16176,-39,-154,3,268438473
52,856,16168,-60,-198,9,268438473
-80,784,16360,-23,-224,20,268438473
-88,744,16160,-45,-186,0,268438473
-76,788,16256,-19,-184,9,268438473
-24,736,16156,-38,-197,19,268438473
28,852,16108,-25,-203,20,268438473
-52,860,16100,-21,-199,-4,268438473
40,776,16188,-2,-176,-4,268438473
-24,784,16236,-11,-187,-14,268438473
-132,820,16224,-17,-155,12,268438473
-100,692,16136,-37,-194,-4,268438473
48,904,16152,-46,-151,-2,268438473
12,872,16160,-30,-196,11,268438473
-8,756,16304,-32,-248,-2,268438473
8,748,16152,-54,-176,3,268438473
84,820,16200,-45,-163,11,268438473
-52,816,16204,-40,-232,26,268438473
64,876,16228,-17,-197,-7,268438473
-28,756,16232,-29,-177,2,268438473
40,868,16168,-30,-186,-26,268438473
-16,800,16152,-12,-180,37,268438473
52,772,16124,-16,-201,3,268438473
-60,764,16160,-32,-128,32,268438473
-128,904,16144,-26,-167,-19,268438473
-44,812,16260,-21,-171,-1,268438473
0,808,16336,-29,-144,6,268438473
68,828,16144,-21,-177,-34,268438473
-104,860,16132,-10,-176,-13,268438473
-76,820,16164,-40,-212,14,268438473
-24,880,16236,-30,-171,16,268438473
24,804,16184,-11,-177,-9,268438473
12,836,16140,-49,-169,23,268438473
-12,860,16188,-43,-179,25,268438473
-64,748,16044,-25,-166,-9,268438473
-48,892,16276,-40,-198,-25,268438473
-72,840,16320,-53,-206,-3,268438473
32,808,16220,-18,-191,15,268438473
-4,748,16284,-25,-185,-15,268438473
20,836,16240,-24,-166,10,268438473
44,800,16188,-35,-190,-11,268438473
-44,788,16316,-25,-168,-3,268438473
72,772,16096,-28,-160,-2,268438473
-36,816,16272,-25,-215,-8,268438473
52,872,16328,-19,-168,-1,268438473
-68,732,16200,-30,-204,-2,268438473
-100,888,16096,-25,-198,-5,268438473
88,864,16212,-31,-197,15,268438473
-36,848,16116,-16,-201,4,268438473
-24,796,16144,-33,-196,-8,268438473
-24,832,16300,-34,-189,10,268438473
24,876,16152,-18,-214,0,268438473
40,788,16160,-29,-170,5,268438473
-16,724,16232,-13,-164,8,268438473
-32,852,16084,-18,-159,28,268438473
-40,852,16092,-44,-210,3,268438473
0,836,16128,-12,-192,15,268438473
-24,816,16280,-16,-164,10,268438473
-80,780,16272,-22,-180,9,268438473
-156,780,16248,-26,-205,-1,268438473
-12,816,16148,-26,-205,10,268438473
0,892,16136,-43,-209,18,268438473
-104,832,16168,-27,-153,29,268438473
84,788,16296,-27,-191,-4,268438473
8,860,16208,-34,-191,-4,268438473
-76,836,16204,-38,-179,21,268438473
-48,792,16136,-14,-174,-17,268438473
-44,760,16152,-45,-203,4,268438473
-56,840,16352,9,-202,21,268438473
-36,836,16164,-30,-196,-22,268438473
-92,820,16144,-11,-192,-2,268438473
44,836,16216,-15,-168,36,268438473
-20,840,16244,-23,-177,22,268438473
72,924,16232,-16,-195,8,268438473
-20,760,16108,-23,-168,0,268438473
-68,932,16116,-22,-201,-14,268438473
-56,884,16072,-38,-185,26,268438473
-52,844,16228,-55,-122,7,268438473
-104,884,16236,-23,-166,13,268438473
48,780,15940,3,-170,-5,268438473
4636,-1992,17208,-143,-622,-7471,268438473
-460,-704,15948,542,-1162,-13145,268438473
3032,3104,16224,712,-190,-12107,268438473
3896,3548,16180,894,-1735,-15371,268438473
2568,2108,16608,695,-1171,-16590,268438473
4172,1096,17020,724,-1292,-17990,268438473
7068,-2548,16756,476,-1311,-21256,268438473
4168,-964,17668,1066,-2229,-23409,268438473
-968,1432,15984,753,-1431,-17762,268438473
-4868,804,15544,115,-696,-8404,268438473
-7748,324,17280,582,-4862,-3654,268438473
-5356,64,15324,305,99,-4621,268438473
-5160,-1076,16384,205,1361,-3968,268438473
-5088,-2568,16672,-310,-261,1400,268438473
-2220,-500,15536,-107,-357,5822,268438473
-4188,-344,16708,-338,-287,7943,268438473
-6684,-824,14328,-546,420,13236,268438473
-5672,-1080,16560,-367,-652,18817,268438473
-5292,-856,15180,-772,2666,23030,268438473
-4588,356,16768,-1488,8179,24639,268438473
-12,-1272,17532,-176,1259,23656,268438473
356,-800,15496,-1327,2316,23417,268438473
1664,-1424,16496,-1437,2132,21730,268438473
672,-2284,17472,-799,464,22212,268438473
-4136,-3036,15904,-1330,1582,26164,268438473
-7508,-3868,16224,-1603,1547,32767,268438473
-1116,-524,14036,-1427,1868,32767,268438473
6000,-3412,17640,-1857,1490,32767,268438473
4744,-2860,12880,-2127,8137,23556,268438473
5232,-1876,15440,1223,-8835,13446,268438473
6348,-1252,17192,901,-2830,5840,268438473
5548,-712,17876,-198,-131,834,268438473
6232,1044,16540,200,-538,-2277,268438473
876,2340,16328,42,-88,-2158,268438473
-48,836,16156,-57,-104,8,268438473
-340,608,16264,-26,-231,5,268438473
-144,808,16132,10,-166,19,268438473
-156,812,15932,-30,-197,0,268438473
-104,812,16120,-8,-186,-17,268438473
-140,824,16184,-52,-170,-9,268438473
-168,736,16100,-16,-190,41,268438473
-144,852,16044,-32,-216,5,268438473
-88,792,16236,-30,-193,38,268438473
-64,792,16264,-7,-190,-2,268438473
-176,828,16204,-19,-186,17,268438473
-152,776,16232,-24,-179,22,268438473
-156,764,16144,-40,-184,-3,268438473
-140,836,16288,-11,-186,-25,268438473
-76,688,16224,-35,-108,0,268438473
-148,896,16144,-21,-206,37,268438473
-176,784,15996,-55,-185,12,268438473
-84,836,16296,-24,-158,16,268438473
-168,832,16036,-40,-154,15,268438473
24684,-4936,19836,251,190,-19330,268438473
12124,-4524,18452,2571,-3105,-32768,268438473
-3036,1148,6844,2699,-66,-32768,268438473
-6956,-1456,15392,1921,-1725,-32768,268438473
-6216,-572,15600,537,-143,-18244,268438473
-6324,36,15568,365,-1472,-1784,268438473
-6116,552,16364,-123,-281,3104,268438473
-5600,-264,15932,-264,194,3270,268438473
-892,-664,16300,227,-918,733,268438473
416,1104,15928,29,-275,38,268438473
-212,764,16280,-41,-186,-10,268438473
44,824,15940,-47,-167,-23,268438473
-84,740,16104,-11,-116,-1,268438473
60,864,16176,-36,-159,8,268438473
-128,852,16208,-25,-231,4,268438473
-27696,-5140,21456,-3210,3707,19450,268438473
-6128,3888,16248,-670,-133,32767,268438473
6384,112,17032,-2040,2488,32767,268438473
7132,-1048,16556,-1006,947,25266,268438473
6060,-760,15580,-1071,1835,14485,268438473
6572,-528,16504,-86,-250,3907,268438473
2936,448,15848,49,-18,-2890,268438473
-244,912,16212,36,-251,-435,268438473
64,872,16128,-112,59,-33,268438473
-220,804,16232,-68,-228,17,268438473
-144,712,16112,-109,52,2,268438473
-164,812,16292,24,-297,20,268438473
-112,828,16256,69,-344,35,268438473
9404,-2360,17236,351,-295,-16243,268438473
4192,-316,16112,1466,-1657,-30375,268438473
-2928,928,16452,1271,-1013,-28367,268438473
-5624,224,16276,758,-703,-15603,268438473
-2700,944,16264,317,-861,-2979,268438473
1416,640,15936,161,-476,-4160,268438473
-1208,992,16156,377,-834,-7197,268438473
-3664,1552,15776,58,-191,-4865,268438473
-1976,480,15960,67,-484,-2437,268438473
-140,-576,16088,146,-416,-4153,268438473
-1892,-1836,16056,486,-1194,-5494,268438473
-1688,520,16352,173,-597,-3175,268438473
-1200,3140,16264,84,-624,173,268438473
-768,2804,16024,185,-990,3286,268438473
-2464,348,16020,-191,-64,7992,268438473
-3752,-752,16524,-313,-67,11980,268438473
-2336,-676,15944,-455,-696,16877,268438473
-3488,-648,15824,-543,253,18746,268438473
-2668,424,16008,-729,1106,22769,268438473
-1240,1596,16080,-1075,3783,22056,268438473
644,636,15988,-737,893,18436,268438473
-1144,-300,15792,-822,1103,15809,268438473
416,-1328,16140,-669,659,13924,268438473
2448,-856,16116,-500,620,8872,268438473
3124,-676,16196,-252,82,4452,268438473
2644,-1748,16796,-329,215,2815,268438473
1628,-1696,16456,-58,-384,1722,268438473
1924,-1528,16032,-164,201,312,268438473
-272,-864,16544,-371,701,619,268438473
1244,100,16436,-273,338,1164,268438473
2848,2268,16392,36,-171,-2763,268438473
2608,4284,16220,206,-308,-7129,268438473
3672,4048,16384,259,-202,-9504,268438473
2776,1832,16528,258,-379,-9297,268438473
3108,3392,16064,324,-482,-8024,268438473
1220,3124,16128,444,-856,-7220,268438473
180,2756,16572,319,-674,-7710,268438473
548,3732,16196,442,-623,-5014,268438473
-36,3656,16304,511,-871,-5133,268438473
-1420,2252,15932,333,-992,-2994,268438473
-1896,2000,16268,135,-1015,175,268438473
-3024,248,15708,4,-228,2649,268438473
-4004,24,16252,-32,-915,6685,268438473
-3424,572,16100,-296,-219,9802,268438473
-4836,-344,16304,-287,-178,11300,268438473
-5096,324,15612,-324,-227,11253,268438473
-4816,-1984,15804,-418,1689,8920,268438473
-3228,-2876,15720,-166,235,4146,268438473
-816,-3480,16432,-111,44,485,268438473
1016,-3996,16072,105,-436,-3021,268438473
3200,-1844,16464,176,-494,-5607,268438473
4088,-900,15940,234,-408,-7978,268438473
4740,256,16632,311,-294,-8540,268438473
4168,-56,16252,141,-137,-6841,268438473
3160,1028,16256,6,-38,-6127,268438473
3264,2544,16316,-61,238,-5771,268438473
2140,2984,16100,-18,-221,-4210,268438473
1100,3736,15836,87,-421,-2445,268438473
92,3860,15720,-73,-583,-293,268438473
-980,3836,15872,-106,-124,1316,268438473
-1952,3684,15860,13,-521,3633,268438473
-2544,3360,15896,-135,-267,5040,268438473
-2404,3504,15984,-254,-59,5681,268438473
-2528,2480,15556,-111,-171,6363,268438473
-2988,1356,16140,-238,63,6224,268438473
-3412,1324,15700,-432,23,4556,268438473
-3408,-624,16128,-116,87,2911,268438473
-3180,-828,16460,-18,-144,1350,268438473
-1672,-1976,16276,56,-180,-152,268438473
-160,-2436,16516,-64,-82,-977,268438473
356,-2444,16676,43,-70,-830,268438473
1640,-2408,16684,58,-291,-1422,268438473
1592,-2072,16304,66,-303,-2405,268438473
2380,-1460,16096,193,-380,-3267,268438473
2572,-1120,16092,115,-257,-3642,268438473
2320,-860,16404,87,-377,-3852,268438473
2428,-1200,16388,71,-246,-3784,268438473
2468,328,16412,80,-251,-3717,268438473
2592,1516,16124,76,-431,-3476,268438473
3032,3064,15928,-30,-218,-2614,268438473
1456,4312,16156,-224,280,-2404,268438473
264,4040,15856,-177,-159,-1393,268438473
-352,3772,15312,61,-319,974,268438473
-2176,3812,15940,-127,-37,3109,268438473
-2812,2720,15840,-223,-27,4482,268438473
-1520,4212,15904,-210,7,5111,268438473
-1556,3280,15888,-326,167,6102,268438473
-2188,1200,16144,-251,234,6370,268438473
-2536,1972,15904,-207,-54,5498,268438473
-3028,116,15424,-104,51,3888,268438473
-2848,-472,15964,-60,-206,2273,268438473
-1812,-1044,16248,26,-314,1007,268438473
-904,-1156,16824,44,-328,10,268438473
-988,-2268,16456,79,-320,-610,268438473
136,-2272,16204,80,-111,-1461,268438473
1600,-2188,16312,15,-145,-2173,268438473
1348,-1576,16024,96,-235,-3466,268438473
1304,-1272,16024,110,-374,-3646,268438473
1780,-1004,16444,152,-374,-4001,268438473
2092,-1220,16200,148,-246,-4471,268438473
2680,-508,16164,122,-224,-4443,268438473
2924,640,16100,28,-229,-3918,268438473
2916,2060,16364,108,-462,-3551,268438473
1660,3300,16088,-77,-69,-3112,268438473
1268,3820,16264,66,-237,-2606,268438473
-376,4104,16004,-111,-166,-289,268438473
-916,3576,15916,-83,-79,2059,268438473
-2488,3416,16056,-256,-6,3728,268438473
-2448,3072,15940,-172,-86,4576,268438473
-1700,3188,15640,-91,219,4829,268438473
-2396,2332,16012,-306,164,5060,268438473
-2108,2168,16120,-212,-14,5251,268438473
-2316,1148,16184,-170,-72,4559,268438473
-2588,532,15844,-77,-278,2826,268438473
-2276,-44,16068,27,-333,1698,268438473
-1668,-904,16088,135,-562,991,268438473
-1472,-1360,15828,33,-363,781,268438473
-896,-2712,16656,-18,-192,606,268438473
-232,-2896,16580,-10,-221,151,268438473
160,-2536,16980,43,-271,-1164,268438473
1052,-1156,16640,130,-331,-3544,268438473
1828,-1244,15900,285,-383,-5818,268438473
2312,-860,16396,194,-346,-6488,268438473
2656,-24,16416,180,-479,-6086,268438473
3044,1456,16112,43,-242,-4869,268438473
2924,2608,15948,18,-193,-3322,268438473
2856,3140,16160,-6,-22,-1679,268438473
-16,4088,16172,-35,-102,-1582,268438473
-280,3936,15864,-97,-542,-739,268438473
-388,4176,15892,-13,-259,-84,268438473
-236,3576,15844,-262,-292,3111,268438473
-1108,3140,16252,-285,-79,5938,268438473
-1704,3196,16040,-282,245,7714,268438473
-2404,2648,15884,-444,377,8981,268438473
-2948,1156,16312,-335,502,8630,268438473
-3576,172,16076,-441,407,7623,268438473
-3456,-532,16200,-399,394,6668,268438473
-2168,-3600,16884,-72,-5,6132,268438473
232,-4084,16324,-249,225,6149,268438473
4040,-2296,16052,-364,181,4730,268438473
2752,1888,16256,-130,268,-1322,268438473
-740,1364,16332,831,-2707,-2725,268438473
-68,820,16404,190,-570,-1738,268438473
64,1084,16244,-68,-8,-386,268438473
-124,828,16116,-37,-132,-1,268438473
-116,808,16196,-32,-185,6,268438473
-44,756,16260,-37,-189,-19,268438473
-296,744,16180,5,-419,14,268438473
5136,228,17004,323,-999,1706,268438473
-200,2032,16396,368,-795,-2954,268438473
52,1552,16828,275,-1163,-2219,268438473
88,312,17024,987,-2226,-2968,268438473
-1480,280,20072,1043,-10725,-3023,268438473
80,-692,18648,1317,-22393,-4337,268438473
3048,1688,16848,569,-28577,-4724,268438473
4180,1972,15708,529,-30414,-3068,268438473
2948,852,15560,1359,-31663,183,268438473
6172,-148,13864,2837,-24603,2225,268438473
9440,4172,13000,3264,-20202,888,268438473
9520,1904,16744,1492,-30166,-2151,268438473
10528,1420,13796,3324,-32768,-3868,268438473
11452,1836,7364,4221,-29958,-2049,268438473
10668,1092,7712,3376,-20708,426,268438473
12924,844,8812,2278,-11404,2004,268438473
14332,2676,9988,3628,-5458,763,268438473
15124,3284,9652,3610,-6218,-1592,268438473
14896,3316,7876,4328,-4789,-2832,268438473
15016,3172,7196,5322,2567,-3698,268438473
14688,3536,7432,8055,11967,-3084,268438473
14456,4412,8616,12402,19409,-1454,268438473
13404,4920,8156,15151,20765,-512,268438473
10780,5636,11148,10966,23644,-1827,268438473
10436,5052,11352,8521,18872,-2740,268438473
10076,6760,11832,5605,17643,-3728,268438473
11140,5860,11148,2891,12566,-3742,268438473
9228,4664,12244,1854,18860,-2444,268438473
7264,5792,12640,3084,22656,-1061,268438473
5760,5996,13376,4780,22005,-992,268438473
5496,6220,14004,5634,26960,-2382,268438473
3912,6776,14912,5295,18677,-3040,268438473
3408,6908,14756,3672,16204,-3972,268438473
2400,6292,14236,1865,19602,-4088,268438473
2228,6908,13052,414,19821,-4950,268438473
1704,5936,13228,-864,14007,-5369,268438473
1088,5768,13844,132,10767,-2964,268438473
-328,7052,14012,1424,10590,-970,268438473
-1888,7072,13140,1362,17770,-487,268438473
-2308,7952,14116,1741,18105,-1281,268438473
-2780,7672,14704,1622,15600,-1682,268438473
-2856,7352,15028,829,15895,-2903,268438473
-5224,8368,12568,-2335,15183,-3856,268438473
-5700,7620,13396,-5057,17637,-5048,268438473
-5972,6812,12268,-6558,20611,-6698,268438473
-6564,5896,12840,-6704,18542,-6113,268438473
-7820,6428,12872,-5663,17800,-4583,268438473
-9492,6076,11532,-6783,16645,-3829,268438473
-10700,5488,12188,-6705,15092,-4267,268438473
-11608,5360,11712,-6003,13693,-5420,268438473
-10936,5296,9680,-8492,12208,-7324,268438473
-10728,2952,10224,-9357,9806,-6832,268438473
-11016,1924,9292,-11517,3037,-6159,268438473
-11876,1696,9824,-11711,-2526,-6603,268438473
-12612,1924,8948,-10792,-7371,-6055,268438473
-12680,1848,10624,-7638,-11120,-6043,268438473
-11540,484,10668,-6117,-11461,-5721,268438473
-10560,64,12068,-4611,-12741,-4460,268438473
-9884,-132,12512,-4591,-10637,-4589,268438473
-8816,-760,13044,-5619,-10916,-4219,268438473
-8924,-1392,13452,-7004,-14651,-2733,268438473
-8832,-988,13560,-7652,-9729,-2344,268438473
-8656,-2040,13460,-7095,-11682,-3342,268438473
-7732,-2600,13756,-7844,-22397,-2406,268438473
-7896,-2364,13164,-9452,-24636,-2233,268438473
-5872,-2588,14488,-5060,-18281,-3486,268438473
-3724,-3308,14928,-2461,-14085,-3055,268438473
-3216,-3896,13256,-1657,-21185,-1136,268438473
-728,-4416,11804,-1405,-32768,-152,268438473
536,-3720,12620,2363,-32768,1174,268438473
1688,-2776,14228,6301,-28762,1150,268438473
2932,-2000,15512,8373,-22711,748,268438473
5064,-1136,16456,9061,-21684,1364,268438473
6356,-1336,15712,6026,-13918,1681,268438473
6944,-152,14308,7757,-7343,1296,268438473
7732,236,15380,12443,-373,137,268438473
6644,1336,17656,16399,5906,280,268438473
5544,1728,18588,16047,11619,-622,268438473
3032,2232,19064,15061,27456,-2906,268438473
1040,3212,19612,15728,32767,-6975,268438473
1100,2548,18516,14383,32767,-7410,268438473
-132,2052,15196,10502,32767,-5402,268438473
32,1928,12008,9433,31193,-1209,268438473
-3480,2424,14832,15593,20342,4601,268438473
-7540,5424,15032,19409,8007,8429,268438473
-9556,7352,13684,16163,5244,7670,268438473
-7596,6856,12008,14249,2754,6288,268438473
-6836,8460,15576,18515,1188,7788,268438473
-8432,9904,15212,21015,-3815,9436,268438473
-10120,10992,14984,14167,-2935,6167,268438473
-10204,11128,13836,7240,507,-1064,268438473
-7128,9884,11404,583,4236,-8462,268438473
-2196,8432,9968,-4178,5518,-12002,268438473
168,7608,8044,-7377,-1266,-8836,268438473
-20,7192,5240,-7891,-3895,-2859,268438473
-2368,6772,5908,-1680,-6871,2035,268438473
-6216,8964,8668,6800,-8255,3661,268438473
-6440,11596,9020,9564,-8648,317,268438473
-3608,12504,10960,9099,-7886,-1486,268438473
-3332,12928,13948,9633,-10092,-225,268438473
-2848,10476,12280,1842,-10019,44,268438473
-4404,8652,12084,-8478,-2702,-1101,268438473
-6228,8372,11644,-11299,-312,-2403,268438473
-4700,6388,8160,-14026,5016,-5899,268438473
-2604,6564,8720,-8321,2270,-3962,268438473
-3080,8036,9084,653,-3026,1352,268438473
-2224,9336,8284,4428,-9396,4015,268438473
-3788,11460,13060,12361,-12013,8717,268438473
-6836,13248,15524,17041,-13094,7719,268438473
-5428,13976,19344,12594,-11637,3804,268438473
-3460,13672,19916,5957,-5816,1790,268438473
-2764,12540,17184,-569,-3075,925,268438473
-2376,11556,13904,-3701,-721,-949,268438473
-852,10840,12224,-8127,1819,-2215,268438473
540,10020,8460,-11898,1044,-2601,268438473
1304,8980,5468,-12382,356,-2131,268438473
784,8056,4680,-8147,-4318,-659,268438473
-500,8488,7924,-2088,-5394,542,268438473
-4020,11620,10668,1930,-7975,-967,268438473
-4436,9676,11968,3105,-9248,-5380,268438473
-1608,7828,13188,5993,-9303,-7873,268438473
1968,8888,13416,6581,-5061,-5002,268438473
3092,9528,15452,4887,-5812,164,268438473
-624,10504,15028,1341,-6502,2377,268438473
-2076,11512,14092,-2983,-2941,-702,268438473
-324,11896,14216,-3259,-3368,-3593,268438473
1700,11268,14652,-2511,-7456,-3382,268438473
1512,10876,13688,-1843,-10261,-1832,268438473
860,10484,11892,-1461,-8305,-1123,268438473
584,8900,11148,-591,-5399,-1691,268438473
892,9176,12068,2463,-4460,-2443,268438473
1788,9104,12376,3344,-6007,-2233,268438473
1900,9516,12172,2585,-7429,-1647,268438473
1540,9724,11212,1335,-4802,-1401,268438473
1800,9928,11116,-660,511,-2388,268438473
2192,10204,11712,-2329,3603,-2241,268438473
-1772,9776,19968,-12577,11510,-5907,268438473
1832,11120,15076,-25291,14584,-5386,268438473
96,9548,10828,-26243,7745,-1928,268438473
-1396,7464,13032,-26390,-145,-1342,268438473
-2432,4460,13980,-25010,-3830,-3070,268438473
-2544,4296,14424,-27669,-11244,-5752,268438473
-1332,3496,16740,-26548,-7431,-6019,268438473
516,56,14648,-20326,-6836,-5663,268438473
2652,-2888,14504,-12976,-8186,-2663,268438473
3244,-2756,14772,-3495,-6940,1109,268438473
2692,-1988,15184,10393,-4039,3155,268438473
1732,996,16628,22383,1499,4018,268438473
404,1748,16412,29999,1468,3512,268438473
-208,4896,17972,32767,-226,755,268438473
560,6936,16592,32767,-1632,-2809,268438473
1596,9628,17232,30407,-2889,-4680,268438473
2940,10544,15424,25849,-901,-4894,268438473
2000,11044,14764,16493,653,-5940,268438473
2156,9784,12548,5357,4263,-7289,268438473
1784,9044,12672,-7335,9720,-6456,268438473
-236,7628,15008,-21737,5706,-3976,268438473
1680,7060,14448,-32768,-2568,-21,268438473
408,5748,12316,-32768,-5615,5348,268438473
-140,5036,10924,-32768,-5458,9046,268438473
-912,3784,13724,-32768,-1379,7865,268438473
-2044,1516,12756,-22258,-2365,3284,268438473
-184,-1732,12336,-4489,-4402,-1258,268438473
1636,-3024,12956,12648,-4740,-3400,268438473
1720,-3800,14552,25516,-3308,-3281,268438473
1416,-836,16468,32767,1597,-2372,268438473
1668,3240,14992,32767,5975,-814,268438473
-80,8428,18704,32767,5282,-2428,268438473
836,8860,19652,21646,1322,-4973,268438473
1828,8372,19640,6736,-38,-5102,268438473
3252,9536,20684,-6920,-927,-1213,268438473
3348,8560,18396,-24922,-6050,2910,268438473
3564,6164,15556,-32768,-4416,8581,268438473
1356,5496,12348,-32768,-1991,11625,268438473
-1584,4244,11356,-32066,-1831,9470,268438473
-1504,1464,10932,-20566,-2822,3185,268438473
136,-1348,9960,-5442,-1709,-1424,268438473
1968,-2180,10096,9896,-2648,-3207,268438473
2508,-964,12416,22635,-997,-2562,268438473
1044,1392,16556,29742,4486,-2782,268438473
664,3756,18556,32767,8984,-2569,268438473
-968,7048,19964,28351,8516,-4448,268438473
672,7464,21432,18290,4864,-4989,268438473
2224,8028,22780,9657,7009,-2351,268438473
1520,10724,20804,2204,9491,2443,268438473
1616,9428,19100,-11169,4033,3631,268438473
1484,7944,14708,-19103,6736,4829,268438473
-552,5296,11012,-20920,8417,4829,268438473
-1964,3924,8904,-17282,8495,3131,268438473
-2884,3080,9192,-12196,4264,97,268438473
-3756,2304,10136,-6660,-6515,-760,268438473
-1412,1112,12292,-3799,-18004,37,268438473
-616,1788,14736,-2464,-21711,1857,268438473
616,2640,14900,-1597,-20082,2600,268438473
1556,3664,13920,-102,-21308,497,268438473
3204,3324,16020,622,-31148,-2900,268438473
6716,1672,17948,-3562,-32768,-2951,268438473
9188,1572,17692,-2870,-22639,719,268438473
9332,2104,17112,724,-15349,2055,268438473
8476,2640,15372,1891,-16616,2836,268438473
10368,2292,14116,2181,-11884,1541,268438473
10776,1640,13488,4663,-3406,692,268438473
10628,1872,12596,6416,4584,2555,268438473
10300,1716,12184,3926,16516,2561,268438473
9744,1132,12980,2786,28065,2983,268438473
8724,368,15684,6152,32767,4791,268438473
2528,5364,14728,6893,32767,8065,268438473
-2328,7412,15632,3608,17045,5421,268438473
396,5096,14128,5918,-17090,-2334,268438473
2624,3800,12800,8056,-32768,-5996,268438473
3872,4448,12920,3818,-32768,-9227,268438473
5852,5604,14504,3967,-28357,-9671,268438473
7600,5168,15136,5943,-24308,-10622,268438473
11772,4960,15244,6285,-18490,-9035,268438473
13504,4796,12480,10618,-3971,-7202,268438473
11884,6160,11412,13584,11249,-5620,268438473
10716,6676,13748,12142,20853,-6267,268438473
5856,7924,12764,14027,32767,-9394,268438473
312,11188,9464,5100,32767,-8420,268438473
1352,8304,10972,-1303,31226,-11099,268438473
1976,10812,11124,-2016,18324,-10233,268438473
156,10992,12608,-3564,-15493,-3875,268438473
-1528,9708,11624,-8956,-32768,-3330,268438473
3244,8728,13120,-10517,-32768,-1959,268438473
4700,7256,11344,-2373,-29346,-1146,268438473
5796,7828,10824,3725,-18170,-3166,268438473
8068,8548,11872,4093,-11571,-3604,268438473
10072,7540,11836,3048,-3422,-1202,268438473
9836,6728,12352,2885,5940,3601,268438473
8388,7740,10144,2307,5064,4131,268438473
6320,9172,9896,-3065,968,7114,268438473
5196,7164,11140,-7200,-3774,7397,268438473
5172,9584,9316,-4395,4538,5510,268438473
5404,7048,10704,-3425,7864,-56,268438473
5816,10032,15092,-114,71,-5440,268438473
3264,9688,9216,-3121,-32768,-4159,268438473
9852,7700,11224,1459,-32768,-5637,268438473
14480,7804,9840,9672,-11794,-5321,268438473
13192,4336,9724,10481,14519,-4755,268438473
10760,6672,9232,8762,32767,-6195,268438473
6508,6064,12720,3060,32767,-11364,268438473
3760,8852,11704,1254,32767,-11632,268438473
3508,11584,12096,-2700,24539,-7537,268438473
1508,12780,11892,-1217,11444,-4768,268438473
2148,12728,12964,-742,-12228,-3053,268438473
3636,11300,14420,-3005,-10942,-3563,268438473
2516,10384,14112,-1373,-12341,-1177,268438473
3600,9864,13396,583,-9465,164,268438473
3928,9064,11880,4253,-5254,464,268438473
4892,7456,10816,5318,587,-634,268438473
7408,8136,10516,4616,11766,-3042,268438473
3432,10372,12344,652,25153,-6657,268438473
248,11432,13832,-1904,21519,-5156,268438473
1956,13188,16012,-4925,-2515,-1675,268438473
3224,7152,14680,-11961,-24374,1362,268438473
5628,10616,10392,-6712,-32768,564,268438473
-1344,7348,11912,459,-31506,-1033,268438473
4996,8140,10644,7839,-6295,7131,268438473
5744,7784,11064,3504,6562,4513,268438473
7696,7084,11616,-2285,32767,310,268438473
1676,10264,15560,-7604,32767,-6588,268438473
2228,12012,12644,-7870,-6187,58,268438473
2452,9340,12912,-5448,-14353,1106,268438473
5620,9724,14776,-5211,-12612,-620,268438473
1336,9624,12552,-3633,-24985,-7404,268438473
992,6676,14608,6307,-22381,-521,268438473
7012,8356,11656,8862,-5035,1485,268438473
8968,9564,11460,5009,1880,2047,268438473
5696,9004,14536,2016,12648,4301,268438473
9040,9388,13860,-1106,26983,3296,268438473
5628,8168,13112,-5006,32767,-2577,268438473
464,10260,12844,-7374,28725,-4049,268438473
1400,9808,13732,-7705,3856,-2062,268438473
928,8052,13424,-7925,-23589,-19,268438473
1620,7980,12232,-6728,-32768,-4362,268438473
1428,5996,14428,-1858,-13868,-6637,268438473
1920,6652,12752,7893,-11740,-853,268438473
4916,6444,12088,10391,-11248,815,268438473
4928,6364,11528,9160,-5574,2146,268438473
7448,10168,12496,7779,3125,467,268438473
2112,7740,15916,3174,17328,2369,268438473
7176,11088,14068,-1962,28044,-3134,268438473
3728,10972,15044,-4092,20470,-2996,268438473
2828,10444,13784,-5012,-4425,458,268438473
2272,8416,12616,-3950,-19187,1861,268438473
2384,6632,11292,-2437,-32768,-1530,268438473
4124,6380,11272,2511,730,2296,268438473
3068,6508,13700,1605,23757,-1218,268438473
2652,7448,14136,1473,32767,226,268438473
2280,10700,14656,-1495,32767,-4583,268438473
-1100,10780,15456,-3879,30144,-3357,268438473
-3524,9472,15252,-4361,13890,-1422,268438473
-2868,9404,15180,-4366,7955,-21,268438473
-3608,8232,13456,-5658,7842,-530,268438473
-3964,7292,13256,-6116,13078,-2835,268438473
-4052,7192,13048,-4873,19604,-4768,268438473
-4204,7776,12904,-3431,27746,-6819,268438473
-8080,7148,12264,-4154,32767,-8363,268438473
-8976,6168,12360,-5116,28545,-7616,268438473
-8216,6640,11136,-3716,30980,-7620,268438473
-10184,5004,9608,-4628,29979,-7901,268438473
-11660,3768,9212,-6586,28038,-8141,268438473
-11852,4052,7800,-6751,27428,-7462,268438473
-12416,3412,5900,-4281,23035,-6713,268438473
-13752,2496,4384,-990,15804,-6125,268438473
-15160,2136,3188,86,8994,-3928,268438473
-15252,2452,3024,796,1612,-2355,268438473
-16600,976,4072,1630,-9343,-148,268438473
-15996,1492,4304,2905,-27116,4341,268438473
-13364,2516,4216,5574,-32768,9682,268438473
-10392,3056,6000,9516,-32768,13288,268438473
-10924,3292,8436,11724,-32768,17410,268438473
-4108,9508,10460,6672,-32768,14424,268438473
-4108,8552,13888,423,-32768,8833,268438473
-564,6616,17624,-3868,-32768,5509,268438473
1884,6268,14584,-4470,-32768,3249,268438473
3384,5412,15116,-5071,-32768,3924,268438473
6736,6192,16660,-5169,-25586,4538,268438473
7564,6212,16076,-3828,-13120,3384,268438473
7524,5132,16244,-227,-697,2629,268438473
7268,5264,14992,4244,15439,2249,268438473
4820,5516,16628,5243,28017,1550,268438473
1776,6600,13528,8348,31958,-4194,268438473
-1984,6720,14164,5713,18561,-1813,268438473
2020,6576,15932,-2424,-955,2433,268438473
4884,7676,17128,-6855,-7340,7468,268438473
2792,7740,16556,-8620,-12366,12313,268438473
1940,4136,13648,-9604,-27747,15364,268438473
3856,4388,12024,-7395,-30792,17658,268438473
3996,3288,12396,-5277,-23582,12482,268438473
3636,4128,11588,-4119,-21822,3936,268438473
5904,2992,10888,-642,-20437,-2885,268438473
9288,1440,12156,2077,-13021,-10223,268438473
9584,4488,13148,287,-9387,-12909,268438473
10180,5504,14052,-1837,-8376,-9956,268438473
10924,5128,12508,-3959,-11669,-5369,268438473
13692,4772,11716,-2571,-17758,-2951,268438473
13616,4260,11540,372,-7869,-3295,268438473
12692,3444,11516,3084,6199,-3122,268438473
10092,3532,11164,5987,25314,880,268438473
11736,6064,13708,3215,32767,-1520,268438473
6468,5876,12204,2393,32767,-10214,268438473
188,7344,14792,-1117,32767,-9801,268438473
-4844,7016,19932,-860,32767,-8009,268438473
-10920,3660,18208,-2973,1420,-4157,268438473
-4508,6088,15312,-5133,-31919,2578,268438473
-1636,5384,11792,-6940,-32768,11553,268438473
2312,3240,13760,-8520,-32768,15772,268438473
2812,4356,14432,-8361,-32768,15983,268438473
10316,2944,14040,-10124,-32768,14109,268438473
9016,3124,13376,-13251,-32768,10641,268438473
10392,828,11972,-14818,-16220,7472,268438473
11476,76,10244,-10409,-7646,5089,268438473
12168,-1872,8460,-7863,-6972,5174,268438473
14492,-1648,8308,-2752,3975,7025,268438473
12716,32,7304,846,16502,1483,268438473
7588,728,11152,3128,22575,-4619,268438473
5720,1532,11664,2742,12638,-14609,268438473
7000,668,15680,1104,439,-20467,268438473
8248,-184,15360,2744,18538,-18576,268438473
8220,2604,15288,3814,16591,-9152,268438473
11700,2400,16656,3613,21467,-5560,268438473
8728,2764,19044,6399,32767,-3011,268438473
3048,4580,17888,8105,32767,-1619,268438473
-180,4620,15192,1175,13803,2646,268438473
1540,2788,15040,-7791,-8484,7407,268438473
2904,1532,15276,-9630,-13453,11162,268438473
3224,1632,16068,-7734,-13082,12253,268438473
3836,2660,12532,-8364,-11734,10203,268438473
7816,64,18444,-1777,2554,3448,268438473
1768,3816,12988,-1468,5260,5911,268438473
6248,760,17064,-1974,7770,738,268438473
3168,572,15080,-1573,8708,-217,268438473
5596,-592,15912,-621,1400,-2189,268438473
6420,-856,16872,1639,5362,-4080,268438473
3704,1396,16960,3839,11616,-1314,268438473
-356,2172,14128,2646,15625,212,268438473
1480,8216,14736,-1891,2297,-220,268438473
3872,-4832,18576,-1927,-2542,-6975,268438473
3064,-508,15972,-3444,32120,-13656,268438473
-1200,1900,15732,-1166,32767,-11496,268438473
-4136,264,15708,626,32767,-9182,268438473
-6848,-784,13492,2584,32767,-4102,268438473
-9516,1728,12000,636,32767,-1720,268438473
-13624,1576,11060,-2515,32767,601,268438473
-15816,-504,8176,-6514,32767,651,268438473
-17212,72,5708,-10231,7956,-3348,268438473
-17880,-4452,2512,-14328,-22998,-3700,268438473
-16544,-1248,4288,-15927,-32768,-3875,268438473
-14960,-4524,5756,-8030,-32768,-4655,268438473
-9640,872,4468,2572,-32768,-5535,268438473
-1404,5224,8612,10743,-32768,-4879,268438473
6364,828,7864,19997,-32768,-7157,268438473
11500,908,9564,16685,-32768,-12474,268438473
21300,2116,10972,7390,-32768,-18803,268438473
18904,8300,4488,9,-19168,-32768,268438473
16488,1928,-564,-5690,-2686,-29571,268438473
17724,1884,404,-5756,6626,-16907,268438473
18852,7324,6312,-2712,4943,-4185,268438473
15976,7512,8520,-4834,8218,1360,268438473
14016,6264,8080,-7213,23769,-162,268438473
14068,7492,8788,-5155,24895,1540,268438473
11072,6012,7656,-841,23887,1252,268438473
10804,5744,9520,1920,26132,578,268438473
12808,4936,12476,1370,17831,2498,268438473
12008,8712,12148,-317,19729,5215,268438473
6108,6712,13036,-2465,28443,8784,268438473
10584,4032,12452,-5989,32767,4138,268438473
7652,5036,14272,-5774,32767,-168,268438473
4520,4984,15768,-6398,32767,-679,268438473
3428,4320,14856,-8018,32767,-1737,268438473
56,5560,13900,-13188,32767,-6758,268438473
-5240,4344,17244,-19402,32767,-11081,268438473
-10292,800,15984,-15513,32767,-7559,268438473
-6660,1300,8952,-16843,32767,-7171,268438473
-13140,-548,10996,-14781,32767,-2368,268438473
-12308,212,6696,-8942,31408,1588,268438473
-14828,-356,3284,-6273,21603,1535,268438473
-19140,-3252,800,-5386,-2815,4318,268438473
-14208,-2700,3976,-1161,-32768,5501,268438473
-11148,-3696,5952,2250,-32768,1820,268438473
-9320,-2616,7680,4501,-32768,-47,268438473
-6460,2024,9188,10523,-32768,1620,268438473
-1896,3736,11900,18026,-32768,4314,268438473
9692,6148,12412,13442,-32768,1293,268438473
10576,4216,24616,-5909,-32768,1643,268438473
10232,2972,15316,-20269,-32768,5827,268438473
7460,-908,8016,-18108,-32768,-979,268438473
9944,-296,4868,-9185,-32768,-16535,268438473
17260,1760,3056,-2232,-32768,-27972,268438473
22272,-444,5032,2886,-11291,-25495,268438473
20832,972,6412,4022,15651,-20025,268438473
19388,3832,9252,349,32767,-12743,268438473
16828,6104,10892,-7677,32767,2956,268438473
9448,3380,9000,-14060,32767,4148,268438473
5044,4524,9628,-11985,32767,-2435,268438473
4244,6280,14712,-6249,32767,-1700,268438473
-776,6052,15104,-3765,32767,-141,268438473
-2912,4576,15468,-8459,32767,-7963,268438473
-4804,-396,16396,-11065,32767,-10173,268438473
-7232,1984,16172,-13827,32767,-8605,268438473
-8064,1272,11888,-16630,32767,-8402,268438473
-9180,-80,7340,-15232,32767,-5128,268438473
-12372,636,5800,-13211,32767,-713,268438473
-17280,-5560,3608,-14314,32767,3586,268438473
-19824,-3380,3060,-14785,11291,9141,268438473
-16940,1000,3968,-11972,-29017,13308,268438473
-14688,-3596,5448,-3517,-32768,10051,268438473
-9092,-1052,6548,305,-32768,2509,268438473
-5864,1656,9560,1283,-32768,310,268438473
-5204,3996,8296,-2465,-32768,-4367,268438473
828,-180,12636,-4415,-32768,-11281,268438473
12728,20,16320,-8537,-32768,-10522,268438473
12648,-388,23896,-8088,-1647,-5772,268438473
8920,-1656,20416,-2292,7610,-8469,268438473
9540,-80,15680,-1256,32767,-9404,268438473
3612,-1420,17328,-8462,32767,4077,268438473
-3796,-748,14524,-14644,32767,11335,268438473
-7092,-4624,9900,-8530,32767,15573,268438473
-8828,-344,7908,-87,32767,20218,268438473
-14200,2972,7492,5126,25017,19763,268438473
-15940,-2936,8800,2539,-19668,15886,268438473
-10572,-2508,4452,-4607,-32768,9080,268438473
-11900,1552,11936,-5849,-32768,249,268438473
-2580,1604,17332,-12043,-32768,-5327,268438473
2316,1424,18156,-14234,-31582,-7696,268438473
2608,-1864,18620,-7149,-7849,-8876,268438473
6360,68,19320,2001,20636,-10940,268438473
-2184,-4628,21824,7369,28537,-9803,268438473
-1788,-588,17428,9553,8134,-7465,268438473
-1188,-3224,18368,-3036,-22560,-3994,268438473
4052,-508,8660,-15757,-32768,1236,268438473
212,-4604,11056,-8440,-25522,8272,268438473
-1228,-3260,17416,7246,-16073,6004,268438473
1336,548,19892,8718,5138,-1853,268438473
-976,3176,21548,-7516,10707,-5123,268438473
-184,-728,15392,-23180,8187,-5004,268438473
688,-2564,9032,-23229,10704,-1959,268438473
-760,-920,6832,-14311,5669,574,268438473
232,-6352,8520,716,-2354,2477,268438473
1860,-5812,12160,10821,1942,3611,268438473
2428,-4368,18680,7531,7798,3285,268438473
-1608,-3456,18992,619,-976,2301,268438473
404,-880,15740,-1033,-5131,1107,268438473
-20,-5312,17768,7293,956,-1341,268438473
-384,-5072,21004,25798,-1087,-2277,268438473
-1820,-1096,17500,32767,-2073,-5895,268438473
2688,-2420,16980,32548,4607,-7784,268438473
328,4608,27644,4304,15780,-3901,268438473
120,4040,29520,-27352,7501,3375,268438473
1788,3016,15416,-32768,-1570,4706,268438473
-96,-908,5784,-32768,-3208,7799,268438473
-3708,-3816,2624,-18411,-13201,10972,268438473
-3136,-4964,7352,-4301,-15164,7962,268438473
-1616,-3908,11580,4865,-9609,1806,268438473
-284,-2992,15680,13031,1738,-2516,268438473
1552,-3680,18936,18406,6819,-5621,268438473
2240,-3200,17224,24636,3970,-6853,268438473
820,24,17260,26642,5261,-6335,268438473
-2416,-164,21096,13530,8895,-5610,268438473
-2512,1192,17236,2693,7523,-6762,268438473
552,3660,13748,2019,3688,-3925,268438473
-1596,168,14320,7485,3686,-1244,268438473
-3824,-1188,16216,17301,-12112,2365,268438473
1864,1228,17884,18282,-32768,1264,268438473
6000,3488,20340,7689,-32768,6155,268438473
5408,6280,18732,-4915,-32768,10112,268438473
4756,4292,14484,-11897,-32768,8628,268438473
6608,2392,10652,-10597,-32768,4171,268438473
9008,2584,8412,-4612,-25952,-3999,268438473
8864,-96,12408,1762,-25132,-9448,268438473
11244,1720,12172,3568,-24699,-10134,268438473
13536,4448,10672,-2505,-2313,-11337,268438473
14868,1096,13884,-7081,32767,-7908,268438473
11340,2788,13828,-9526,32767,373,268438473
6956,4860,11192,-8257,32767,8055,268438473
4460,2908,10608,-2232,32767,17828,268438473
92,928,9336,5823,32767,14800,268438473
-6584,5868,16808,8533,32767,15170,268438473
-8368,644,18356,4816,32767,13420,268438473
-13640,1260,20640,-2558,7539,8779,268438473
-11636,400,18616,-5812,-22373,337,268438473
-5520,2736,14420,-5950,-32768,-4600,268438473
-1572,672,10564,-5032,-32768,-7314,268438473
-972,2628,8440,-1509,-32768,-4499,268438473
1532,4240,10456,-361,-32768,-2981,268438473
6196,3152,13604,-737,-32768,-5228,268438473
7240,4716,14000,1063,-32768,-9874,268438473
14716,7792,11364,532,-32768,-14586,268438473
19788,3392,11940,2499,-269,-10664,268438473
17148,4924,13860,1869,32767,1687,268438473
7976,4980,15192,-220,32767,7745,268438473
-352,3636,14052,-4855,32767,7464,268438473
-1116,1284,13152,-7670,32767,52,268438473
-5212,1784,16136,-5607,32767,-2443,268438473
-5808,2540,16468,-2943,22758,-976,268438473
-5568,592,15256,-29,-8298,2765,268438473
-4196,-1032,13160,821,-32768,5753,268438473
-1004,1324,11992,-2515,-32768,6733,268438473
808,1884,13900,-4258,-32768,5954,268438473
5524,6108,12904,-3005,-32768,-4674,268438473
9860,4656,11072,-2904,-32768,-16534,268438473
18436,3624,16336,2586,-12705,-24338,268438473
19660,2952,13556,2530,27379,-13276,268438473
14092,4304,14384,-1603,32767,3040,268438473
4760,4860,12592,-4060,32767,9364,268438473
1932,4456,14172,-6990,32767,7899,268438473
-3204,2576,17852,-10399,32767,2387,268438473
-4472,652,17660,-13987,32767,-1326,268438473
-3624,404,15840,-19405,25928,-3302,268438473
-3172,952,13760,-23160,17934,-1537,268438473
-5200,504,12324,-20707,-9511,6261,268438473
-4144,2032,13936,-15197,-32768,10700,268438473
-8852,1168,13304,-16531,-32768,5416,268438473
-8084,-616,11028,-17550,-30474,-2818,268438473
-3680,-2288,9688,-11421,-21703,-9965,268438473
-108,-4868,11912,530,-8301,-14216,268438473
2720,-4284,12868,17000,-6919,-13698,268438473
3948,-1668,13516,32767,-7440,-12194,268438473
4496,1892,14280,32767,-7058,-10211,268438473
4948,176,18384,32767,2452,-2054,268438473
6056,10316,30068,27293,-12000,9073,268438473
3288,7444,32767,-13758,-26601,13967,268438473
1148,8636,22692,-32768,-32768,11805,268438473
4456,7448,13900,-32768,-32768,11216,268438473
7652,1872,7660,-31615,-19525,4739,268438473
9280,-1804,7116,-12136,-13097,-2310,268438473
12224,-2436,7844,-2005,-2313,-2257,268438473
11800,-2820,11268,1306,21176,2931,268438473
8636,-988,14796,270,32767,8171,268438473
3224,1636,12716,-2188,32767,9293,268438473
276,2092,10796,-2790,32767,8214,268438473
-108,452,10484,3602,32767,10912,268438473
-3400,-148,11660,11775,32767,17968,268438473
-8540,2668,13140,11696,29348,22568,268438473
-12600,-504,14324,2876,17256,21595,268438473
-17032,-340,13028,-4299,759,16864,268438473
-15596,1608,12040,-5706,-23900,9185,268438473
-9776,60,13592,334,-26242,-127,268438473
-4468,220,13096,4274,-23495,-7805,268438473
-848,-4236,15620,4574,-19761,-11212,268438473
-960,476,17212,5212,-31311,-13544,268438473
1520,4124,18308,1842,-32768,-11303,268438473
5992,2880,17924,-6261,-32768,-3857,268438473
7868,2916,16332,-11001,-32768,3500,268438473
9204,1384,15240,-10205,-32768,6838,268438473
11988,160,16868,-6676,-32768,3617,268438473
10904,-144,13928,-5989,-24681,253,268438473
11216,12,11892,-6812,-11580,17,268438473
10444,-472,9412,-4692,7844,137,268438473
8888,-1332,9484,3386,28869,-2035,268438473
5812,428,13472,14466,32767,-1087,268438473
1872,3372,13132,18183,32767,-132,268438473
-2836,2144,16476,12057,32767,-4844,268438473
-3712,1580,20052,3312,32767,-8945,268438473
-4372,884,18184,-2897,32767,-9332,268438473
-6032,1400,15412,-7692,32767,-7101,268438473
-6920,584,13728,-9044,27037,496,268438473
-10504,-376,12400,-8833,-6477,8546,268438473
-8680,-2392,12420,-6664,-32768,11573,268438473
-7636,-2524,9568,-8254,-32768,8254,268438473
-4068,984,10928,-8168,-32768,2240,268438473
72,840,12064,-2746,-32768,-3546,268438473
5348,1184,12940,1716,-32768,-8166,268438473
10284,1780,15764,1450,-32768,-8349,268438473
14200,952,16980,-938,-32768,-5872,268438473
15260,2996,17268,-373,-19738,-3511,268438473
13492,680,13236,-8629,-14185,-368,268438473
12072,-324,9944,-9422,4284,-3145,268438473
9296,-3412,13608,-5325,31254,-6517,268438473
8284,-2136,18716,-6386,32767,-5299,268438473
3428,488,19108,-17480,32767,-3232,268438473
3644,-192,15568,-25485,32767,-4042,268438473
4012,-740,11916,-22248,20534,-3286,268438473
3404,-2268,9940,-14983,-1546,428,268438473
2824,-3256,13032,-8846,-6222,5303,268438473
1656,-3044,13312,-9288,3460,6021,268438473
264,-4736,13680,-9724,8918,5044,268438473
-1880,-6056,13372,-6638,6336,4120,268438473
-2624,-7144,14320,-691,-754,2990,268438473
-2432,-8464,15048,8241,-5006,553,268438473
356,-5212,12888,19154,-6806,-1783,268438473
1688,-3264,12528,32767,-3088,-2215,268438473
844,-2404,14288,32767,-2643,-629,268438473
1720,1348,19396,32767,-2592,212,268438473
2480,2804,29780,13802,-13014,2924,268438473
4396,1852,24232,-13857,-32768,6972,268438473
6680,2764,16860,-25679,-32768,12655,268438473
5796,2224,10684,-22755,-32768,15607,268438473
5960,-1508,9144,-11738,-32768,10527,268438473
8644,-2136,10608,-4459,-32768,1276,268438473
11236,-1688,10012,-4505,-32768,-5496,268438473
14060,-424,6184,-7175,-32768,-9276,268438473
14220,-556,2440,-8219,-32768,-11489,268438473
14504,-756,608,-6346,-29998,-14594,268438473
16900,460,-148,-3106,-12662,-20027,268438473
19696,-2544,2376,-1911,9372,-22831,268438473
18192,1724,5064,-1617,22628,-22417,268438473
21660,948,5720,-6512,32767,-7371,268438473
18580,2720,9152,-10447,32767,4124,268438473
14132,2500,11040,-14238,32767,6121,268438473
13984,1792,11784,-16455,32767,5885,268438473
11464,2136,11496,-15549,32767,6412,268438473
9640,1380,12356,-9691,32767,9147,268438473
4960,-952,13432,-4486,32767,12280,268438473
-64,308,13468,-2698,32767,16108,268438473
-1308,-824,15552,-3508,32767,17217,268438473
-4060,-2044,18192,-4861,15777,17363,268438473
-5848,-2968,18440,-7404,-12989,14869,268438473
-5724,-2320,15148,-11676,-32768,8813,268438473
-5448,-1100,12528,-11308,-32768,2544,268438473
-3556,-1912,13400,-8008,-32768,-5228,268438473
184,-852,16072,-8516,-32768,-12553,268438473
4924,-1720,16956,-10822,-32768,-18527,268438473
10504,-844,16056,-16288,-8913,-22198,268438473
13576,-932,13396,-22441,29203,-18047,268438473
13212,-1944,14316,-22420,32767,-8148,268438473
10436,-3784,13560,-19143,32767,3184,268438473
4844,-5852,12696,-14296,24918,12426,268438473
2392,-5736,11424,-8388,20552,14563,268438473
-2736,-7844,13276,-5226,14840,14622,268438473
-4160,-7744,13504,-1924,7194,10190,268438473
-4588,-6816,14556,-414,154,5053,268438473
-3460,-4480,12180,-4325,-5915,1499,268438473
-1856,-7952,13180,-2020,-10287,927,268438473
-1812,-8612,14228,4413,-8558,2386,268438473
-1676,-5616,14684,5811,-86,2516,268438473
-2128,-3552,16872,-3742,5613,1307,268438473
-2308,-6944,16884,-17357,2359,15,268438473
-220,-9604,14544,-24002,-2816,-1107,268438473
-120,-13092,10468,-16645,-7940,-2342,268438473
800,-15992,11720,-4845,-6440,-2385,268438473
608,-11188,13356,708,2983,-1493,268438473
-232,-9028,13228,-1532,6768,33,268438473
-1492,-7924,12544,-5051,4070,1882,268438473
-1612,-8248,11456,-6161,-4740,3217,268438473
-1204,-10488,11136,-2192,-8321,3096,268438473
-160,-9824,9812,5303,-3237,3411,268438473
-1588,-10384,10488,14747,4453,4536,268438473
-1076,-10192,13404,19619,4404,4669,268438473
-1152,-8412,17240,12886,4620,3874,268438473
-2208,-5472,17612,-2233,3316,2821,268438473
-3012,-8724,15648,-15415,2795,-1320,268438473
-4152,-8516,10552,-19387,-1239,-6269,268438473
-2752,-9848,9080,-15319,-5409,-7119,268438473
-1016,-10348,9648,-7066,-6623,-5049,268438473
216,-12204,10804,2696,-4733,-1116,268438473
-32,-10644,11948,10985,-1319,2314,268438473
-456,-9924,12556,16441,539,3955,268438473
-88,-11292,12360,20113,453,3166,268438473
-1620,-8944,12072,23125,366,289,268438473
-2184,-6080,14380,21212,1435,-1600,268438473
-1348,-4084,15984,13095,4976,-2062,268438473
-2616,-5144,15568,5280,-2380,-3666,268438473
-412,-2424,12824,4011,-7224,-5048,268438473
952,-8772,14680,15038,-15953,-2169,268438473
956,-4320,16164,27306,-32768,-2571,268438473
3820,-3836,16764,30979,-32768,-8570,268438473
5816,-20,18392,22972,-32768,-14321,268438473
8452,2480,17664,8536,-32768,-12543,268438473
10872,3152,14192,-1304,-30146,-9837,268438473
11136,2420,12648,-4114,-19599,-6829,268438473
8704,864,13700,-7985,-10107,201,268438473
10620,-96,16016,-18625,14553,-776,268438473
9784,-2216,17104,-26914,32767,1520,268438473
8540,-1352,12752,-28633,32767,8429,268438473
4988,-4272,11812,-19903,32767,13472,268438473
3016,-3424,9940,-3307,32767,15950,268438473
-1728,-5520,10728,9900,32767,19452,268438473
-7488,-5120,12000,18874,32767,24697,268438473
-10036,-412,14168,20761,4150,27237,268438473
-9516,-4024,19888,10927,-32768,20984,268438473
-2620,-3368,17356,-936,-32768,11152,268438473
2032,1464,13172,-12383,-32768,2927,268438473
2668,1700,12784,-12191,-32768,-3247,268438473
6616,1480,15376,-5552,-32768,-9325,268438473
11648,380,15748,-7241,-32768,-9930,268438473
16764,1812,11620,-11040,-25844,-9367,268438473
13112,-2960,13956,-14300,11099,-9110,268438473
9904,-4120,16632,-15953,32767,-1154,268438473
6780,-848,14228,-18633,32767,8960,268438473
1956,-1356,11092,-14118,32767,16613,268438473
-1796,-7404,11352,1764,32767,21560,268438473
-6184,-6852,11568,16847,17831,25747,268438473
-5760,-2120,12660,26085,-10793,18067,268438473
-5388,-4416,15188,22669,-32768,3288,268438473
2120,-828,16916,4981,-32768,-2290,268438473
4976,4480,15156,-6923,-32768,-4086,268438473
7552,2944,13132,-10836,-32768,-11394,268438473
12004,2844,11620,-9829,-32768,-15853,268438473
15760,1976,11780,-5862,-32768,-14181,268438473
19212,-408,16236,-8841,-7313,-8527,268438473
14640,-1988,15196,-19276,32767,-640,268438473
12656,-2972,16876,-29639,32767,9360,268438473
9452,-1888,13032,-28808,32767,15166,268438473
3772,-3344,9848,-18085,32767,20318,268438473
-1564,-4664,10340,1837,32767,23214,268438473
-2388,-2120,14260,11141,12066,18826,268438473
-6192,-1188,18784,1837,16543,6669,268438473
-6264,-3892,16932,-17379,8558,-2539,268438473
-5144,-3780,13816,-24168,-1440,-8669,268438473
-1672,-1672,10456,-23015,-13196,-12441,268438473
-1300,-4920,8628,-19433,-19778,-8417,268438473
-3376,-9068,11372,-17078,-13719,-5142,268438473
-2636,-12008,10932,-15258,3230,-2744,268438473
-2484,-9856,9896,-14352,3320,-2897,268438473
-436,-14104,11636,-7137,-627,-525,268438473
584,-12516,12476,342,-650,2543,268438473
-1216,-11400,14096,-765,673,3709,268438473
-2264,-11436,14068,-6171,-5570,2916,268438473
-2560,-12824,14648,-8007,-10033,-859,268438473
-2224,-10872,12980,-8013,-13245,-3994,268438473
144,-10432,12068,-7476,-9338,-5886,268438473
1464,-13304,10512,-4987,-5216,-5556,268438473
2500,-12140,8688,1815,-4067,-2783,268438473
1292,-11688,6508,6234,2489,592,268438473
260,-8144,9416,1946,923,1272,268438473
636,-7748,10220,-6991,2306,-71,268438473
-260,-8784,13912,-15738,2506,1079,268438473
-1556,-14120,15244,-21356,-1239,2100,268438473
484,-16792,9792,-18944,-2748,5916,268438473
176,-16292,6780,-14367,849,7886,268438473
-384,-16172,3912,-8263,1724,6266,268438473
-1012,-15832,2464,-1302,2493,3457,268438473
-1168,-13908,3512,6825,459,849,268438473
-1768,-16052,7740,12163,1292,-931,268438473
-840,-10864,13684,14487,825,-1888,268438473
-2548,-12360,13428,5294,2553,-1846,268438473
692,-10212,13152,-8878,7650,-1678,268438473
-828,-10756,8068,-20372,5370,791,268438473
-956,-12236,3452,-23369,8098,522,268438473
-1872,-16468,3532,-17962,6272,-1305,268438473
-2148,-19540,4020,-9243,3673,-1473,268438473
-776,-18768,4124,-477,6640,-24,268438473
84,-16168,5644,4695,17105,3936,268438473
464,-19128,7844,3582,23617,12457,268438473
-1524,-13004,7360,-3232,32767,17943,268438473
-3900,-13224,4252,-7938,32767,24498,268438473
-7240,-11500,1504,-8884,32767,25589,268438473
-8400,-11764,-92,-8230,32767,24687,268438473
-8656,-12252,-1008,-7046,32767,25497,268438473
-10064,-10328,-3028,-7053,28243,24520,268438473
-11952,-9996,-5496,-5509,11150,20844,268438473
-14852,-11416,-7276,755,-2453,12735,268438473
-13828,-8372,-5768,6743,-15604,4272,268438473
-10448,-8320,-88,6711,-15776,-6968,268438473
-9468,-9548,6796,-865,1007,-11558,268438473
-12496,-11432,4772,-12609,13581,-9948,268438473
-13000,-12024,-3088,-16291,15782,-10597,268438473
-11440,-10456,-10620,-11199,7683,-12501,268438473
-10764,-11888,-10648,-1561,-9310,-11097,268438473
-9584,-11876,-9304,8126,-24792,-10434,268438473
-9032,-11108,-4020,16165,-32768,-13353,268438473
-7800,-13476,3056,18138,-26861,-14377,268438473
-8728,-14424,4684,8981,-12974,-13371,268438473
-9836,-11656,2864,-1699,-17639,-12651,268438473
-8124,-15748,-200,1153,-27462,-11755,268438473
-8968,-14732,-1880,10163,-32768,-15558,268438473
-4640,-13592,1568,18383,-32768,-22484,268438473
-1016,-14732,6144,22319,-32768,-25252,268438473
2652,-13524,7764,22048,-32768,-23405,268438473
8944,-11112,4836,23093,-32768,-24875,268438473
7260,-11656,7752,16827,-32768,-21800,268438473
10880,-10036,8012,9239,-32768,-16137,268438473
13248,-12012,9268,696,-3809,-8686,268438473
12288,-11236,8764,-6689,23978,3522,268438473
9192,-11328,8676,-12023,32767,14071,268438473
6896,-11264,7324,-12955,32767,20886,268438473
3368,-11808,8508,-11707,32767,26937,268438473
-3200,-14396,10412,-6074,32767,26478,268438473
-7880,-14948,8996,2635,29936,19659,268438473
-10208,-11336,3652,8888,8620,12253,268438473
-14980,-10252,1716,9958,-30995,-1653,268438473
-8548,-8032,4940,8495,-32768,-14904,268438473
4380,-9140,8040,1786,-32768,-22829,268438473
13932,-10988,11168,-9316,-32768,-18098,268438473
15392,-13308,13652,-17680,7036,-4709,268438473
13932,-15504,11600,-16149,32767,4342,268438473
11976,-12872,5640,-10962,32767,12944,268438473
3036,-8660,5648,-13843,32767,21020,268438473
-4812,-12424,6188,-18564,32767,28493,268438473
-8792,-12368,2628,-18422,26247,30189,268438473
-12920,-13432,-1672,-12937,6110,28902,268438473
-15680,-13504,-2804,2539,-16009,17116,268438473
-14380,-12792,164,17365,-32768,-3873,268438473
-8628,-8824,4484,19200,-32768,-22298,268438473
1044,-5564,9236,7717,-32768,-28677,268438473
10080,-8788,18020,-12396,-23908,-18539,268438473
6932,-13136,19116,-30808,18831,-6054,268438473
1688,-15044,9084,-32768,32767,-6096,268438473
0,-16080,2180,-25417,30850,-2702,268438473
-28,-18408,284,-11527,18885,5738,268438473
-1632,-17660,520,928,11169,15357,268438473
-5856,-13600,-1420,9065,-6147,18925,268438473
-6300,-9976,-928,18676,-28333,18360,268438473
-2424,-12972,2956,30750,-27665,13548,268438473
-1028,-9292,7644,32767,-13970,6138,268438473
-4500,-9568,20228,16144,-3317,3495,268438473
-1388,-3544,21260,-21981,18695,567,268438473
-3152,-12452,13308,-32768,25090,-2883,268438473
-7072,-22856,3948,-32768,21032,-1730,268438473
-7932,-14540,3260,-26422,12765,5100,268438473
-10528,-12448,-2680,-10850,-8399,8682,268438473
-8804,-15068,-3780,9275,-31008,7875,268438473
-6592,-14832,-620,26648,-32768,949,268438473
-2744,-10024,3820,31797,-32768,-11095,268438473
3592,-9740,11916,17723,-13104,-16852,268438473
2524,-10924,15880,-6241,17309,-9766,268438473
-3400,-10904,11484,-24897,31871,-2491,268438473
-7056,-15144,8220,-32451,23541,-2526,268438473
-9168,-16732,4828,-28522,15667,-9762,268438473
-9208,-15584,-892,-14704,-8996,-14817,268438473
-5928,-14736,-2756,851,-32768,-20853,268438473
12,-15364,-816,13764,-32768,-24134,268438473
6532,-15560,2364,20863,-31131,-22358,268438473
8440,-14500,6412,18557,-14428,-17557,268438473
6064,-13228,8488,7429,9841,-8354,268438473
3924,-13104,8072,-2906,22601,-2201,268438473
1484,-13052,7816,-9614,21241,1749,268438473
-1192,-17544,9144,-14035,4490,4689,268438473
-1520,-15736,5308,-13228,-15021,1318,268438473
1684,-15444,2188,-5995,-26858,-6634,268438473
6692,-16332,2128,2082,-15053,-7119,268438473
7060,-16364,2976,7885,-3550,4413,268438473
6420,-15048,5132,11872,12865,11575,268438473
3348,-14100,2932,17884,29977,17406,268438473
2220,-16080,4584,25716,29201,21016,268438473
-4396,-11108,3256,32767,24820,20371,268438473
-11848,-8796,7172,32767,-2413,15749,268438473
-10932,-3232,11568,28577,-11430,4317,268438473
-4704,-6088,15276,5263,-1174,2450,268438473
-4252,-9420,13796,-9239,3717,3202,268438473
-3336,-11700,11264,-10645,7957,506,268438473
-2500,-12940,13168,-10943,10227,-4361,268438473
-5104,-14772,15232,-12434,6423,-13749,268438473
-3888,-16928,12108,-9201,-5182,-21609,268438473
-588,-11924,8816,-2459,-28543,-26381,268438473
-1120,-13772,10948,8651,-32768,-32629,268438473
5840,-10988,6224,18868,-32768,-31998,268438473
9636,-6508,4372,17506,-32768,-27878,268438473
13700,-6648,4788,12370,-32768,-22679,268438473
17264,-5908,7288,7837,-26243,-14541,268438473
16436,-9332,11092,-418,12011,-2137,268438473
12228,-10504,13496,-7966,32767,10181,268438473
12284,-14448,11996,-11703,32767,16359,268438473
5420,-4944,4788,-12029,32767,16351,268438473
-2232,-6600,7064,-18285,32767,19575,268438473
-5016,-9124,11888,-27189,32767,21320,268438473
-5084,-11228,11772,-29890,27939,16291,268438473
-8840,-14528,6648,-28694,11029,6846,268438473
-11668,-14480,3852,-24194,-5040,-2679,268438473
-10068,-15364,2972,-16148,-24914,-8912,268438473
-6880,-15828,2884,-7439,-32768,-16945,268438473
-2336,-14280,2448,351,-32768,-21620,268438473
5832,-12964,2432,6819,-32768,-20728,268438473
12320,-13268,3032,4418,-32768,-17516,268438473
9460,-13040,7800,-5349,-7443,-11120,268438473
6892,-12808,5816,-15288,10666,-5392,268438473
6004,-13056,4472,-19129,17503,-3460,268438473
4828,-16924,2748,-15779,13038,-687,268438473
4544,-15776,2456,-13107,8120,4455,268438473
4828,-17172,3376,-13228,4369,8777,268438473
5772,-17312,2040,-12063,8922,12541,268438473
3928,-16232,1376,-10947,13317,14367,268438473
-584,-14320,240,-9481,4484,15746,268438473
-624,-14832,-4316,-2727,-1320,10776,268438473
-1036,-18564,-4160,16754,-6886,5291,268438473
-108,-15908,2112,32767,-20381,2916,268438473
7252,-17028,6080,32767,-17610,882,268438473
2092,-17220,11188,32767,7457,-386,268438473
-3296,-11712,17788,32767,18465,6314,268438473
-6028,3792,15508,26536,11758,7850,268438473
-3980,-5532,15848,-14693,9050,-2980,268438473
-3012,-8900,10680,-32768,-4690,-3402,268438473
-3920,-8588,9420,-32768,-21522,-3632,268438473
1936,-10108,13404,-32768,-14510,-4471,268438473
4328,-18956,10512,-32768,10951,-1257,268438473
2496,-17060,1524,-27417,23132,147,268438473
3968,-8060,-8468,-17014,32767,1892,268438473
-8,-8536,-9228,-5655,27792,6206,268438473
-5580,-13712,-5160,16675,3089,6303,268438473
-7112,-21104,4916,32767,-28107,3281,268438473
-852,-20700,20456,32767,-29162,-3038,268438473
3380,-12856,25344,32767,-11983,-924,268438473
872,-1600,14956,9907,6204,1816,268438473
-1000,-9272,8564,-14699,11379,-557,268438473
-2908,-10524,1904,-19764,-4544,-1612,268438473
-2204,-11848,2572,-10928,-11555,-4492,268438473
1436,-13560,11652,-175,512,-602,268438473
1824,-14612,19712,1552,9001,3149,268438473
-1704,-14052,17204,-3956,3427,222,268438473
-1004,-13272,9108,-2392,-3979,-2584,268438473
-536,-13888,3636,12716,-13157,-3453,268438473
1004,-12736,4056,31912,-15643,-3965,268438473
2968,-9976,8572,32767,-1307,-5921,268438473
-6484,-11832,16312,32767,-8488,-1677,268438473
2308,-848,17232,24419,-25502,2223,268438473
4716,-2840,17148,4578,-32768,7813,268438473
5812,-9348,19728,-2207,-23462,10005,268438473
5492,-4152,9604,-4641,-25322,7780,268438473
7556,-5532,9696,-4355,-32768,441,268438473
11428,-6316,9008,-8174,-31758,-5676,268438473
13144,-4712,16492,-20012,-15952,-8238,268438473
14564,-6936,14280,-30058,10009,-9084,268438473
10592,-14012,10504,-22798,22357,-126,268438473
12568,-10672,5212,-8747,32767,7304,268438473
6496,-5900,7528,1850,32767,12596,268438473
1696,-6932,12240,3953,32767,18305,268438473
-4280,-8340,13336,-4932,32767,17874,268438473
-5028,-6612,10544,-16529,32767,14576,268438473
-5928,-9100,8632,-18483,23507,13054,268438473
-10856,-11764,6352,-13029,3851,8110,268438473
-13776,-13712,7284,-6215,-32628,-5005,268438473
-8916,-10308,7220,-1802,-32768,-18937,268438473
-908,-9304,10048,-7681,-32768,-27057,268438473
2848,-7252,12472,-17325,-32768,-25319,268438473
9696,-11688,8384,-23052,-32768,-19556,268438473
12096,-15020,5416,-20066,-19911,-13794,268438473
13956,-12612,4552,-13812,3094,-4497,268438473
13292,-11112,3316,-14564,20858,3431,268438473
12124,-13700,4408,-14301,32767,11750,268438473
8060,-13676,4860,-12539,32767,18550,268438473
6816,-10200,3432,-4859,32767,21427,268438473
-616,-13716,7976,-3616,30344,22505,268438473
-2416,-15320,9824,-11926,6917,15568,268438473
-1684,-13972,5204,-17800,-3425,9424,268438473
-2192,-14000,3480,-19993,-4523,8624,268438473
-2504,-15252,3828,-21230,-8440,6785,268438473
-2096,-16876,2400,-21372,-7122,4107,268438473
-1012,-16412,-188,-18466,-1659,3824,268438473
-1108,-15668,-940,-12268,2362,6325,268438473
-1452,-14352,-2080,-5248,5133,8569,268438473
-2584,-14496,-4620,7636,2621,11957,268438473
-2692,-18496,-1392,20886,3907,15478,268438473
-3336,-21816,3248,28960,3098,18131,268438473
-4516,-18580,5728,29248,3258,13076,268438473
-5768,-13612,6400,22294,3564,5774,268438473
-5208,-13512,6204,11617,1782,1467,268438473
-5712,-12764,5176,2239,-5111,-1637,268438473
-4076,-10412,5848,-3166,-15722,-3961,268438473
-9016,-14216,3864,-4507,-27704,-6659,268438473
-5660,-8632,5948,-4624,-32768,-12032,268438473
-1512,-11108,5148,-6230,-32768,-15796,268438473
932,-13456,4820,-4901,-32768,-17058,268438473
1560,-15344,5044,357,-17743,-18064,268438473
2904,-20236,10816,10370,-4254,-15190,268438473
6348,-18728,13028,13874,8901,-5348,268438473
3676,-10892,9776,1477,9108,-1712,268438473
1208,-10884,7012,-12676,12697,-2306,268438473
1152,-12412,4420,-15518,8690,-3873,268438473
3968,-13624,4096,-10769,11626,-5482,268438473
3984,-17196,7280,-5881,17803,-1945,268438473
4484,-16804,8112,-2018,21508,196,268438473
2324,-17428,5676,-3195,24101,1310,268438473
4640,-12544,5348,-10101,20441,1993,268438473
3068,-14480,4460,-16560,16038,180,268438473
560,-16088,3768,-14903,12838,-1756,268438473
-1356,-17544,4148,-7166,-1273,-1558,268438473
-108,-17240,3104,3489,-17835,-1212,268438473
1652,-14432,1240,15119,-24372,423,268438473
3812,-14920,2420,25461,-19415,4969,268438473
4720,-15292,5716,31304,-7601,8467,268438473
5168,-13804,7096,32471,14216,12833,268438473
2228,-11460,8168,32767,32767,15696,268438473
-4292,-8456,8144,32767,32767,12923,268438473
-11808,-8864,10888,22854,27543,6052,268438473
-12656,-5960,12272,-3790,-9345,-226,268438473
-7212,-9040,10816,-23497,-32768,-2047,268438473
-5840,-10816,9604,-22810,-32768,-6676,268438473
-1124,-10956,11328,-21953,-32768,-12615,268438473
10512,-25660,21196,-16783,-32768,-13208,268438473
11140,-11288,10448,-7471,-18148,-630,268438473
7388,-12308,1960,-12147,-18365,-8786,268438473
7396,-11916,1844,-5134,-3862,-14395,268438473
8772,-10344,5076,-5087,20637,-11777,268438473
8860,-10424,6580,-9127,32767,-10436,268438473
5284,-16668,4364,-4410,32767,-1232,268438473
3388,-11548,8824,130,32767,11622,268438473
132,-9760,8068,53,32767,12921,268438473
-5748,-16420,9960,-4961,14948,11721,268438473
-664,-13240,8212,-4140,-1515,10394,268438473
-2736,-14612,6948,8505,-18467,6912,268438473
-1304,-16780,9116,26258,-32648,4226,268438473
1652,-12764,7992,32767,-32768,-3280,268438473
1600,-10820,9968,28865,-32768,-8435,268438473
7344,-7020,8360,18259,-32768,-8511,268438473
10492,-8800,12180,5779,-32226,-5725,268438473
12120,-10184,11744,-2060,-9157,-5929,268438473
10248,-7004,11720,-1134,7933,-2816,268438473
11196,-10124,15096,2277,18036,4267,268438473
7940,-8640,15228,-184,21905,9527,268438473
5612,-8688,13604,3585,32099,5140,268438473
-1980,-9988,8688,12208,32767,1832,268438473
-2164,-4460,13708,24619,32767,4361,268438473
-4848,-5220,12900,21715,32767,8222,268438473
-7688,-9888,14876,19344,4477,6850,268438473
-4276,-4444,14208,18724,-27783,7068,268438473
636,-4252,16012,13113,-32768,10756,268438473
2640,-3800,15940,11403,-32768,8420,268438473
3164,-2280,16608,6609,-32768,1353,268438473
7256,72,16424,4764,-32768,-940,268438473
8972,-1264,12360,368,-32768,2809,268438473
11768,-240,7988,-5897,-32768,4542,268438473
13440,-2172,4412,-11580,-32768,1813,268438473
15392,-1716,268,-16391,-11014,-4703,268438473
14288,-2680,240,-17482,30412,-5783,268438473
14092,-6392,7092,-7889,32767,2244,268438473
7964,-5480,20608,-351,32767,10726,268438473
-740,-3824,23676,-3463,32767,9580,268438473
1456,-4940,22604,272,32053,5949,268438473
2532,-5168,20028,12840,-32768,-3131,268438473
6760,-2924,12612,12088,-32768,-3134,268438473
10496,-2972,8924,10296,-32768,2361,268438473
9644,-340,4336,884,-22429,4183,268438473
10664,-1680,1540,-11917,30067,720,268438473
7536,-3612,9692,-13559,32767,-3076,268438473
2400,-4364,21272,-5041,32767,-1458,268438473
-3724,-3608,25192,-321,32767,-659,268438473
-3032,-3204,24964,3764,-16244,1827,268438473
1448,-3072,15984,6092,-32768,6104,268438473
4312,-4948,6536,3165,-32768,8865,268438473
7800,-3600,4988,-7417,28488,1090,268438473
380,-4200,14888,-8976,32767,-1781,268438473
-3400,-4120,19976,-8105,32767,-1634,268438473
-2944,-3520,19736,-8096,21791,-6,268438473
-1904,-4712,14756,-2767,-2429,3877,268438473
-3360,-5120,9888,-4857,24339,5646,268438473
-13064,-7216,14620,-6875,32767,10157,268438473
-8780,-7788,7548,-8753,32767,9982,268438473
-16896,-5940,14992,-4164,18560,6684,268438473
-10904,-6204,10156,6808,9367,3486,268438473
-7752,-4732,8580,15273,9432,6259,268438473
-8948,-3056,10072,18629,5510,10290,268438473
-10148,-3808,10152,8986,-20403,9446,268438473
-9168,-4916,9200,-4530,-32768,7618,268438473
-7724,-2684,9860,-9834,-32768,3137,268438473
-4552,-1872,13972,-11342,-32768,-2620,268438473
-784,-1524,14124,-11079,-32768,-7095,268438473
2420,-3548,13984,-10445,-32768,-10549,268438473
5460,-284,13868,-9348,-32768,-14972,268438473
8660,-6764,18040,-7620,-30895,-20163,268438473
11216,-5976,16924,-7416,-19408,-15222,268438473
12516,-4240,14888,-8595,-14471,-9436,268438473
9192,-5712,11944,-6298,-12638,-6065,268438473
9624,-5852,12120,2867,-4891,-7894,268438473
9072,-5084,12952,11518,-3212,-8688,268438473
9768,-7752,15160,18377,9142,-8239,268438473
8372,-4196,9824,19435,16463,-3402,268438473
6364,16,11492,7927,11154,541,268438473
7796,1116,11204,-4877,5470,-378,268438473
8828,-552,15124,-16317,12501,-1545,268438473
8912,-5360,16232,-19147,32767,-2045,268438473
7704,-3104,16808,-24133,32767,753,268438473
-1452,-5916,18808,-23952,32767,4317,268438473
-3432,-5964,13768,-21260,32767,7509,268438473
-2916,-4864,15720,-18982,32767,10206,268438473
-4100,-7036,10380,-13011,22306,15042,268438473
-11080,-11992,9740,-7447,3719,20131,268438473
-11856,-6780,6440,-3213,-7059,11901,268438473
-8228,-5236,7668,-367,-18816,-154,268438473
-6384,-5480,13468,61,-15119,-4147,268438473
-7160,-6144,14700,3066,526,-3073,268438473
-7716,-8284,15908,8189,-1352,-4231,268438473
-8264,-9756,14776,13603,-12293,-6539,268438473
-8808,-8440,9240,16387,-32768,-12527,268438473
-4456,-3732,10464,15921,-32768,-7957,268438473
2420,-1848,9940,14901,-32768,-644,268438473
9120,-2172,12476,9598,-32768,948,268438473
13284,-1268,13168,-4074,-32768,-1331,268438473
18376,-7912,18180,-14410,-25759,-2926,268438473
17108,-5216,12428,-19293,17240,882,268438473
13820,-5796,8980,-26460,32767,4715,268438473
8992,-6468,10204,-30866,32767,11103,268438473
6292,-7300,10760,-25161,32767,18456,268438473
4140,-9920,9776,-8804,32767,19912,268438473
-548,-9892,9572,7337,31705,15604,268438473
-6264,-9488,13456,14319,10407,12470,268438473
-7620,-7720,14880,8982,-1558,10459,268438473
-3948,-7420,13284,-200,-6788,9516,268438473
-1652,-8716,13852,-5693,-4091,6323,268438473
2500,-8992,16396,-9517,13937,2461,268438473
556,-8224,13536,-14987,32767,2287,268438473
-1420,-7808,7352,-19829,32767,766,268438473
-13556,-13796,12232,-27214,22080,-556,268438473
-11900,-9172,8620,-31220,8973,-8012,268438473
-7864,-11924,5104,-23399,-1191,-7969,268438473
-5524,-11664,3928,-14003,-4761,-10497,268438473
-3432,-11264,2540,-12143,-7729,-13302,268438473
-4328,-13456,5348,-14264,-10257,-14577,268438473
-4356,-16000,6264,-16186,-3936,-11630,268438473
-2720,-18172,5844,-13791,2412,-4495,268438473
-3736,-16640,3180,-7792,4685,1389,268438473
-5836,-14292,-780,-1335,-4278,2859,268438473
-6188,-12904,-1944,8502,-25165,-2179,268438473
-4816,-11408,-268,23212,-32768,-12484,268438473
2248,-14620,6536,32767,-32768,-12034,268438473
8980,-18516,12044,32767,-5215,-1794,268438473
1740,-11708,12912,29146,26510,7595,268438473
-6160,-8412,11484,6850,27733,1461,268438473
-7468,-9896,9372,-13422,10488,-5478,268438473
-5624,-12620,6840,-19351,-9819,-7754,268438473
-4856,-12716,6368,-16622,-29565,-9916,268438473
1444,-17112,11696,-13380,-23427,-8376,268438473
5132,-18556,11712,-5761,-9328,-2622,268438473
3360,-15840,8764,1746,-2708,-5263,268438473
940,-11136,6176,-1176,3743,-4342,268438473
1700,-12224,5456,-7739,4479,-814,268438473
2012,-14604,5712,-8828,6457,-2675,268438473
484,-15940,3964,-5612,3144,-4642,268438473
-1480,-11156,48,8141,-4639,-5917,268438473
-1796,-14520,5240,28015,-27113,-10610,268438473
4244,-13700,11752,32767,-32768,-20465,268438473
7816,-9632,11196,32767,-32768,-27660,268438473
11176,-6368,8144,32767,-32768,-24176,268438473
11072,-7340,8092,17719,-32768,-18798,268438473
14232,-4184,5016,6879,-32768,-15069,268438473
17296,-4008,5996,-3044,-29095,-15301,268438473
19228,-5008,4492,-9059,-11921,-10425,268438473
17908,-6628,4700,-8197,12902,-3421,268438473
17236,-8356,6244,-3466,32515,3694,268438473
15120,-6724,5336,2750,32767,6110,268438473
14076,-6420,7984,6785,32767,10475,268438473
10484,-5008,10312,8013,32767,16126,268438473
6884,-4596,14712,7725,32767,18498,268438473
4132,-4768,17008,8320,32767,17798,268438473
-756,-4132,15424,7216,32767,15868,268438473
-2640,-4544,15116,5272,32767,13160,268438473
-5020,-5824,15404,-3605,28328,2442,268438473
-8028,-8328,14408,-6519,-4217,263,268438473
-6020,-6972,7644,179,-32768,-259,268438473
488,-5164,5864,2427,-32768,-2887,268438473
6524,-1012,10260,-3545,-32768,-4125,268438473
14764,-4432,14680,-13286,-32768,-9952,268438473
16224,-6008,14388,-18079,-26927,-17545,268438473
15076,-4856,9860,-15279,-10911,-22750,268438473
14184,-7916,9916,-7376,13322,-20077,268438473
9584,-8412,11872,-1696,29049,-10706,268438473
8756,-6404,13332,-446,32767,-3163,268438473
8044,-4232,12852,22,32767,8358,268438473
5560,-1648,12352,5929,32767,14648,268438473
5256,-5628,12824,17560,28508,16165,268438473
2608,-2136,12704,19870,13054,15233,268438473
-1040,-2336,20024,8807,21194,10644,268438473
-3248,1240,21068,-15885,23740,3829,268438473
-2676,-2400,20468,-32240,21442,-2321,268438473
-4036,-5420,16276,-32768,12640,-1844,268438473
-6384,-7252,11484,-32768,5208,-306,268438473
-4556,-7120,9760,-32768,3826,-409,268438473
-4200,-8912,8940,-32768,2426,-1969,268438473
-4972,-12864,7492,-32768,-3925,-3774,268438473
-2840,-15836,3604,-29251,-6302,-2949,268438473
-2264,-15760,1576,-15290,-10914,702,268438473
-2064,-16836,2888,1368,-11133,1627,268438473
-1936,-15868,6004,14766,-3858,2324,268438473
-2724,-14124,8368,23307,6273,5261,268438473
-3448,-13288,8456,32767,13809,9228,268438473
-4804,-12552,7172,32767,13660,11717,268438473
-8284,-8100,9444,30329,-6517,6117,268438473
-9136,-7612,10692,19291,-32768,-4266,268438473
-1980,-6964,11388,12028,-32768,-6391,268438473
2828,-6116,12672,6984,-32768,-7091,268438473
6700,-5620,15640,-335,-32768,-8912,268438473
8760,-6992,14764,-6202,-32768,-10618,268438473
9452,-6948,10396,-6606,-32768,-11930,268438473
12420,-7604,8344,-5006,-32768,-14716,268438473
12728,-6452,2400,-5195,-32768,-15061,268438473
15436,-6332,2112,-10905,-32768,-13231,268438473
19116,-6360,324,-11599,-30832,-13371,268438473
22328,-6696,-1908,-5337,-5017,-11220,268438473
20448,-6380,-448,4496,24913,-5442,268438473
15720,-5452,868,12518,32767,1222,268438473
11744,-5328,4560,16396,32767,7531,268438473
9388,-4412,9788,19154,32767,7003,268438473
9044,-2748,13328,20598,32767,4469,268438473
8032,-3736,16576,19763,32767,3487,268438473
5808,-508,14084,11826,32767,5744,268438473
6112,-1212,18416,-92,32767,1639,268438473
-3444,-36,17768,-4812,25613,5795,268438473
-4632,-5180,17080,-239,-13251,6338,268438473
-512,-1504,10312,5072,-32768,9955,268438473
5296,-4020,13480,-2560,-32768,15768,268438473
11852,-4776,10764,-15261,-32768,15085,268438473
13800,-4924,7060,-20272,-32768,1780,268438473
14092,-4416,3972,-17322,-32768,-10319,268438473
15548,-5164,1940,-9065,-26785,-17931,268438473
17300,-3804,3804,1461,-16075,-19308,268438473
18844,-1972,5648,7334,1589,-16828,268438473
15972,-1764,7048,9198,28310,-6476,268438473
14076,188,12780,3904,32767,1835,268438473
11692,-1096,12624,-3616,32767,1071,268438473
11116,-2596,9608,538,32767,-1117,268438473
10880,-844,8680,9398,32767,1489,268438473
4096,-572,12244,11677,23175,5563,268438473
2912,-2492,17004,1366,-20661,7242,268438473
7016,1800,15212,-13188,-32768,13413,268438473
13972,-1524,9772,-18812,-32768,18064,268438473
14340,-4864,6380,-15650,-32768,4242,268438473
16120,-4280,3932,-11013,-32768,-11300,268438473
15680,-4568,2756,-7718,-32768,-21032,268438473
20160,-1836,2340,-4250,-29863,-16686,268438473
24680,-1580,5836,-5623,4926,-4373,268438473
21672,-2108,8556,-15319,32767,4614,268438473
15500,-1948,7744,-27206,32767,9120,268438473
15736,-488,3376,-24360,32767,11317,268438473
13088,-1656,3108,-16369,32767,13506,268438473
8164,-1916,6844,-21453,32767,14409,268438473
8844,-4328,10960,-31926,32767,15149,268438473
7712,-6356,12364,-32768,32767,16667,268438473
3664,-9052,12776,-29808,31404,17341,268438473
1684,-12520,12924,-23157,14785,14871,268438473
1736,-12868,7500,-16305,7949,9273,268438473
2924,-15056,6452,-16788,14040,7790,268438473
1796,-15460,6964,-15873,21941,10301,268438473
-3016,-15024,7584,-12522,26500,13065,268438473
-5892,-15416,6704,-5447,17669,13781,268438473
-6776,-17940,8520,8272,13495,12737,268438473
-6408,-13496,8132,16933,15887,12248,268438473
-5820,-11736,8548,16832,15831,18858,268438473
-3048,-13172,11748,20286,32533,22372,268438473
-6956,-12940,8324,20224,32767,26459,268438473
-9080,-12288,10816,18116,29310,23708,268438473
-8820,-6804,7904,8173,32767,9836,268438473
-12808,-4976,5840,-2989,32767,12224,268438473
-16116,-6092,-720,-3279,24121,12656,268438473
-14388,-4692,-3076,1530,-4144,9373,268438473
-13988,-5132,-3088,938,-26590,3878,268438473
-12192,-4880,-360,-525,-32768,-2351,268438473
-8816,-4152,2636,-9555,-32768,-9817,268438473
-4316,-6368,7796,-20487,-32768,-14858,268438473
4004,-16044,17688,-22586,-32768,-18957,268438473
2288,-13168,22628,-6146,585,-15559,268438473
228,-12968,15192,3745,32767,-5491,268438473
-9484,-4552,8024,5355,32767,7677,268438473
-10296,-9296,-76,8575,32767,10671,268438473
-15664,-5464,1220,8363,32767,18438,268438473
-15296,-5332,624,-1160,-887,23030,268438473
-18196,-6940,968,-5282,-32768,20237,268438473
-13440,-7300,4512,-7172,-32768,9426,268438473
-6176,-5864,13256,-14676,-32768,-1556,268438473
-1680,-11608,20648,-20543,6178,-13559,268438473
-5308,-12112,11496,-12534,32767,-19299,268438473
-17560,-14176,-6496,3651,32767,-14202,268438473
-22360,-740,-3644,12724,27237,223,268438473
-18232,-6372,-3720,7874,-27805,4348,268438473
-11652,-9340,-5840,1839,-32768,4197,268438473
-4728,-3052,4284,-6427,-32768,2859,268438473
4176,-6364,22484,-2415,-20201,-565,268438473
-3756,-11272,25972,6530,30360,-1068,268438473
-14948,-12764,10036,-1135,32767,3400,268438473
-16312,-7112,-2416,-8492,16687,100,268438473
-14776,-3612,-8156,-14033,-32768,-5764,268438473
-3732,-7932,3740,-17196,-32768,-9309,268438473
1308,-13184,23432,-9732,-26212,-17705,268438473
-3060,-16764,18892,-4778,9940,-9707,268438473
-7056,-9720,7616,-5424,7396,-3412,268438473
-7492,-5872,-1728,-10940,-19733,81,268438473
-3016,-7564,760,-14213,-32768,477,268438473
-2088,-13268,13888,-7704,-19141,-8386,268438473
2196,-20340,18476,7367,26208,-7347,268438473
600,-10964,16016,20130,32767,8163,268438473
-4444,-11216,420,26794,32767,23160,268438473
-7936,-13204,-4592,24016,-12260,25853,268438473
-5836,-1832,784,21344,-32768,19767,268438473
-12,-804,23040,26838,32767,6508,268438473
-19284,-2708,24968,26521,32767,7990,268438473
-21272,-2840,16628,5148,30522,18633,268438473
-10968,-2160,3272,-26781,-14391,1858,268438473
-6856,-5784,-4096,-32768,-32768,-14463,268438473
-6348,-7812,15868,-32768,-32768,-12823,268438473
-4776,-16176,23924,-15058,2936,-6346,268438473
-7876,-16116,9504,22589,32767,1146,268438473
-4916,-5080,-1888,29104,30591,9628,268438473
-7520,-6248,-9412,3536,-13295,7284,268438473
-5724,-4164,4428,-17908,-30324,-4760,268438473
-9736,-10976,27068,-4426,6929,-10761,268438473
-16060,-16752,23608,21224,19253,-600,268438473
-14072,-5984,10224,29195,-1183,1616,268438473
-5356,-3492,432,5483,-19676,-2613,268438473
-3980,-6276,-872,-22061,-32768,-3921,268438473
-2612,-9696,17304,-26450,-32768,-8148,268438473
-1420,-12656,28576,-2134,14321,-18798,268438473
-3048,-14448,18808,17805,32767,-11988,268438473
-8036,-7156,6164,20547,6400,-4560,268438473
-4160,-2460,-140,-5149,-32768,-3609,268438473
-3736,-6856,7292,-23838,-32768,-5809,268438473
1696,-9976,24948,-15698,-6686,-6877,268438473
2540,-15792,29308,6836,28092,-5239,268438473
-1268,-13824,14400,14980,23040,2445,268438473
-1048,-2964,-7204,-5005,1050,4255,268438473
-4488,-6552,-10908,-30479,-16240,3053,268438473
-3336,-8072,8832,-26766,-18983,4002,268438473
2592,-24816,32767,13121,14378,-3738,268438473
-2116,-16324,29148,32767,18745,-336,268438473
-4520,-4832,964,24149,10851,2894,268438473
-4632,-6072,-7576,-15245,-3035,-1927,268438473
-3684,-6300,-3496,-27245,-23756,1013,268438473
-1644,-12944,30268,-4769,-14202,-1860,268438473
-480,-15872,32767,23536,13261,-4543,268438473
-932,-8308,15320,17600,21208,1862,268438473
-1780,-6716,-7288,-15073,4624,-1339,268438473
-4012,-9560,-7688,-26016,-19963,103,268438473
-1940,-6460,15364,-14472,-23922,-1135,268438473
-2628,-18760,32767,19568,12611,-6468,268438473
-1260,-12144,24236,30197,21723,899,268438473
-608,-4844,-996,-34,9483,264,268438473
-2360,-9596,-6888,-23516,-8256,505,268438473
-4084,-7832,4040,-20303,-23332,2154,268438473
-3628,-15004,32767,14021,7075,-2742,268438473
-3564,-12640,29088,32767,23295,-433,268438473
-1064,-7768,4880,9970,11170,-535,268438473
-884,-10128,-4868,-18401,-8276,-2797,268438473
-3776,-6936,452,-26268,-30270,317,268438473
-3336,-11800,28596,-1052,-15183,-3351,268438473
1156,-12500,31716,22912,23206,-4229,268438473
-2756,-9592,13852,16723,29736,842,268438473
-3292,-8672,-4372,-6630,-2711,-5328,268438473
-3120,-7596,1108,-19547,-32768,-764,268438473
-3900,-11216,22808,-7765,-32768,-3140,268438473
4560,-9704,25124,7007,-2266,-6460,268438473
3700,-11164,13652,1931,20888,-3094,268438473
-4440,-14196,7852,-3092,10590,-4464,268438473
-2772,-10404,4204,10231,-22806,-7657,268438473
-228,-8380,5776,23476,-32768,-4993,268438473
272,-3032,8572,26561,-32768,-248,268438473
11316,-11676,21976,29187,-32768,-3364,268438473
15728,-4248,11864,9628,-32768,-9978,268438473
15740,-92,13872,-4040,-32768,-19944,268438473
11064,-4804,8900,-8808,-28758,-25604,268438473
13108,-1660,8000,-12596,-26464,-28752,268438473
12944,1464,10624,-19085,-18907,-29830,268438473
24028,-7436,9096,-16556,10874,-10726,268438473
17424,-1516,9944,-18476,32767,3200,268438473
12168,-4308,9280,-28874,32767,16691,268438473
6500,-3508,12180,-27229,32767,19335,268438473
2168,-4800,6684,-15405,32767,19554,268438473
-6916,-8492,7060,12134,19847,15239,268438473
-5060,-7248,16240,32767,-32768,9886,268438473
1168,-2276,17216,24221,-32768,4474,268438473
9584,-5908,12512,-489,-32768,1987,268438473
15688,0,14228,-24852,-7127,-6697,268438473
12844,-3060,20912,-32768,32767,-13340,268438473
3824,-15048,13592,-6413,30233,-10740,268438473
5112,-6544,7556,29311,2438,-1437,268438473
2892,-3176,19208,22754,2954,17548,268438473
4084,-2816,25308,-19707,9996,23327,268438473
8976,-7812,13184,-32768,29216,18355,268438473
6460,-1712,9956,-30103,32767,13042,268438473
5760,-11020,8052,3427,20492,9842,268438473
-6256,-9056,4456,28677,5034,14475,268438473
-10960,-6456,11232,23851,-24790,13079,268438473
-404,1740,24120,-16374,-11519,-3425,268438473
172,-4964,22612,-32768,7247,-11916,268438473
-2336,-11888,18224,-20738,10696,-6350,268438473
-2752,-13300,10652,9808,-9535,-3641,268438473
-1740,-11028,4908,25449,-18346,-2130,268438473
860,-7660,-212,10511,-26429,-523,268438473
5716,-5908,6668,-11187,25495,771,268438473
-1288,-4768,28780,-10768,32767,5666,268438473
-10648,-11124,31212,1240,2441,9584,268438473
-4864,-6292,15584,4684,-13014,3932,268438473
-308,-7136,-784,-8594,-9636,-1444,268438473
-820,-8432,-6548,-22197,-23075,-1678,268438473
4508,-10580,13456,-13215,1471,-3805,268438473
476,-13560,30344,21710,19544,-60,268438473
-5856,-7932,26460,32767,18873,6169,268438473
-4584,-3004,13144,13065,14540,2872,268438473
740,-10836,476,-20845,-9388,-1941,268438473
836,-8948,-6368,-29103,-30456,4126,268438473
-2296,-10844,20556,-6518,-8569,263,268438473
-3172,-10196,29804,27389,13494,-2524,268438473
-3848,-5372,22620,29382,19156,-1116,268438473
-400,-7444,9936,5302,3796,-857,268438473
-1872,-8536,4024,-14925,-25870,-843,268438473
-4024,-6304,4516,-16009,-32768,2718,268438473
2356,-9292,19604,-2287,-32768,-4664,268438473
6640,-6100,24008,12646,-4126,-12536,268438473
6256,-6680,18448,13693,9418,-10517,268438473
3692,-8408,12516,13965,-10024,-8818,268438473
3620,-5444,7640,15000,-32768,-9847,268438473
5528,-5560,11072,14609,-32768,-11518,268438473
6940,-4348,14292,10441,-32768,-11230,268438473
10876,-2528,12376,5554,-32768,-9255,268438473
14312,296,12176,3018,-22561,-11913,268438473
16260,-1388,12516,-607,-15413,-12547,268438473
15400,-1332,12708,-4949,356,-7678,268438473
13256,-1784,11060,-9307,14862,-2732,268438473
12472,-2088,10460,-11981,28950,714,268438473
11124,-2172,11264,-11595,32767,2244,268438473
9796,-2744,12464,-7939,32767,2206,268438473
7920,-2524,13752,-6179,32767,3905,268438473
4368,-728,15452,-9949,32767,6762,268438473
-932,-1928,12036,-16103,32767,8596,268438473
-3860,-3712,9300,-18569,32767,8682,268438473
-8140,-5848,6240,-15143,32767,10309,268438473
-12652,-5368,2572,-14298,32767,12513,268438473
-19632,-6888,1512,-11010,18885,16465,268438473
-22976,-4708,2384,-5849,-22008,16254,268438473
-15700,-4108,4556,-6450,-32768,6317,268438473
-10996,-4324,9572,-9033,-32768,-4565,268438473
-6532,-4344,10492,-11687,-32768,-12118,268438473
-5292,-4440,11796,-6908,-32768,-17250,268438473
-884,-5576,12316,-398,-32768,-19836,268438473
5880,-5720,15300,974,-32768,-21120,268438473
13732,-7816,23864,-722,-9443,-25033,268438473
8248,-6464,27420,-8133,14936,-22953,268438473
9376,-3276,16212,-24283,32767,-10875,268438473
6296,-2380,8348,-32768,32767,3651,268438473
-892,-4412,4912,-32768,32767,20470,268438473
-7256,-10064,1180,-28107,32767,30039,268438473
-15592,-7832,-2612,-12682,8274,30346,268438473
-19344,-6308,-2660,-2062,-24343,20853,268438473
-16024,-8064,484,4867,-32768,-839,268438473
-7620,-8072,3280,8932,-32768,-18220,268438473
2068,-5972,6896,9170,-32768,-26412,268438473
7052,-11164,14764,14935,-32768,-26845,268438473
8276,-9672,23580,20547,-20774,-23982,268438473
10272,-11756,32767,12034,11894,-13841,268438473
6704,-1764,25956,-17682,22123,-326,268438473
4408,-4640,17536,-31992,29746,-2257,268438473
7988,-6740,7008,-32258,24896,3233,268438473
5520,-8848,6568,-30395,31647,14561,268438473
-68,-8988,5468,-26122,31553,24543,268438473
-7492,-6632,1696,-22061,23526,27756,268438473
-13840,-5580,-1448,-18151,2850,25209,268438473
-15780,-8876,1460,-9376,-18283,20926,268438473
-13740,-11728,6164,-1340,-32768,14377,268438473
-10264,-16860,8660,9938,-32768,4822,268438473
-2956,-15304,7884,23329,-32768,-1527,268438473
2256,-12984,12556,30040,-18335,-3016,268438473
3348,-12196,21396,30092,10445,-3192,268438473
-436,-4684,20256,21376,32767,-1873,268438473
-4984,-2824,16304,5826,32767,1126,268438473
-8636,-1980,10356,-6179,32767,4013,268438473
-13056,-440,3156,-13988,32767,9196,268438473
-16744,-216,-696,-17210,11994,12963,268438473
-17468,-4212,192,-15514,-15925,12429,268438473
-12680,-9984,3608,-11782,-32768,5425,268438473
-7156,-12424,7256,-5712,-32768,-6460,268438473
-3156,-9864,13212,5111,-9110,-7961,268438473
-7748,-11880,17592,24877,32048,2174,268438473
-10976,584,6956,30421,32767,10333,268438473
-15760,1140,5916,16295,32767,16695,268438473
-14904,-1496,8284,650,32767,30539,268438473
-15132,-1916,4396,-10422,24669,32767,268438473
-13840,-1924,1668,-10862,15714,32767,268438473
-14496,2036,-116,-2862,18586,29874,268438473
-17516,6424,-2284,3029,16293,15354,268438473
-19792,10908,-2336,2830,6376,3733,268438473
-16376,7840,-1812,-4429,-6726,-1102,268438473
-11768,3376,-2888,-11342,-12561,140,268438473
-10056,2448,-2972,-13281,-15709,-42,268438473
-11700,4024,916,-7230,-4025,-5252,268438473
-15452,4364,3716,4809,13863,-12397,268438473
-21688,5400,4036,13411,7919,-14448,268438473
-18576,4520,5020,2916,-12992,-14148,268438473
-8280,-96,44,-19597,-28045,-7357,268438473
-5844,-388,2744,-25391,-10402,-1025,268438473
-16380,3300,3404,-4243,27827,1466,268438473
-23288,3764,-2052,18225,26284,9085,268438473
-19008,4904,-2304,21141,2574,9585,268438473
-15884,-704,-1448,-69,-31499,3513,268438473
-7856,-1396,648,-23400,-32768,-45,268438473
-9268,2276,5008,-18711,-11863,-5075,268438473
-21772,5060,4880,1971,13653,-12025,268438473
-26904,3012,8308,17510,-2021,-15200,268438473
-20424,4516,7224,8154,-30076,-19333,268438473
-11864,-528,1744,-21644,-32768,-22478,268438473
-5936,-2076,2152,-32768,-32768,-23374,268438473
-4128,-5148,16448,-22363,-32768,-32747,268438473
-6660,-12008,20000,8090,15477,-32466,268438473
-10456,-8616,7188,17766,-558,-26125,268438473
-4640,-4260,4660,11726,-32768,-18086,268438473
-2664,-6148,5580,-548,-32768,-6663,268438473
572,-5400,15064,-5025,-32768,2348,268438473
5948,-8492,29076,6036,-17678,-7204,268438473
6968,-8796,25096,10912,3962,-15949,268438473
744,-6976,14180,10339,-15317,-17495,268438473
-716,-5628,2204,-105,-32768,-13214,268438473
-632,-6616,5812,-9610,-32768,-489,268438473
7728,-6032,16668,-10304,-31016,7010,268438473
15508,-2628,23432,-2073,876,-6861,268438473
14224,-4528,12696,9023,-17182,-24464,268438473
10176,-2576,5560,11582,-26028,-19902,268438473
8812,-3772,7144,9438,-32768,-8117,268438473
10028,-4360,8324,1481,-32768,1780,268438473
11592,-4128,5508,-6434,-26046,6052,268438473
15692,-2624,5984,-6962,-20300,419,268438473
19916,-1936,6100,-4113,-13338,-6362,268438473
22200,-1828,4744,-4243,-4196,-8977,268438473
22712,-3440,7912,-5284,17726,-2429,268438473
16960,-3144,8672,-12443,32767,8248,268438473
10644,-5864,7748,-19897,32767,14146,268438473
8404,-6340,5896,-26268,32767,20710,268438473
7468,-6644,6124,-25923,32767,25032,268438473
6404,-8424,9176,-13559,32767,26696,268438473
4200,-7936,11572,3200,15476,23176,268438473
2632,-9472,18100,14580,26870,15050,268438473
-2444,-7136,20304,13097,31001,11524,268438473
-4996,-8104,13776,4980,31915,10637,268438473
-5608,-9736,1820,-51,13886,12835,268438473
-5480,-11292,-4088,4051,-163,13241,268438473
-3564,-7980,-140,18039,-4701,10716,268438473
-3884,-424,19208,32767,32767,7393,268438473
-17448,5536,32767,32767,32767,6474,268438473
-16252,3596,29956,4322,22772,-5178,268438473
-4124,-4192,12244,-18575,6257,-7921,268438473
632,-9088,-2144,-12402,2589,4899,268438473
-2360,-7236,4348,5529,12687,8668,268438473
-7192,-816,13520,28395,32767,9098,268438473
-18720,2472,15168,30032,32767,8995,268438473
-21112,2880,16592,7377,32767,6771,268438473
-15236,-4472,9172,-16333,6292,2562,268438473
-5296,-7048,-932,-26930,-20419,11962,268438473
-2392,-4672,-1544,-15314,-3468,18045,268438473
-15608,5100,5592,7244,22778,14090,268438473
-26424,9136,8024,17918,32767,6618,268438473
-26400,6556,7960,5016,18924,-2139,268438473
-16684,-1896,3984,-17587,-13700,-6137,268438473
-9544,-4856,-2828,-32768,-32768,-5303,268438473
-5560,-2276,2160,-32273,-30578,-9040,268438473
-20064,4312,11416,-12240,4404,-13167,268438473
-24284,3472,13376,6285,9836,-11691,268438473
-15500,-1444,8620,1994,-5372,-9216,268438473
-7208,-5464,140,-23523,-31678,-8034,268438473
-444,-8104,-2364,-32768,-32768,-6189,268438473
-9708,-3676,3280,-22656,8926,-3874,268438473
-20300,-5892,8732,11264,15696,71,268438473
-20940,-4252,12108,27497,-445,-391,268438473
-12804,-3908,9676,11651,-13619,-6168,268438473
-6700,-5944,2772,-15407,-32768,-7690,268438473
-6824,-5308,5116,-27185,-32768,-10489,268438473
-11648,-7676,11832,-6302,-11964,-11481,268438473
-10076,-11620,15468,17330,-7139,-13382,268438473
-8808,-5896,13936,25045,-25509,-14436,268438473
-2260,-3924,10864,17735,-32768,-9969,268438473
1408,-6804,11812,5354,-32768,-1837,268438473
3612,-4572,13312,-7368,-32768,7254,268438473
7920,-6688,18248,-7402,-32768,5028,268438473
9384,-8292,18156,-3100,-26142,-9184,268438473
7096,-6896,11976,268,-28934,-20094,268438473
2904,-5292,6300,2309,-32768,-24109,268438473
6176,-5700,7680,1819,-32768,-22661,268438473
10896,-4252,8168,-5049,-32768,-13729,268438473
14632,-5584,7204,-13029,-30223,-1462,268438473
18336,-3380,7972,-11126,-24030,-8570,268438473
23432,-2440,5076,-6845,-16968,-21050,268438473
21504,-776,2532,-6286,-7738,-21388,268438473
20120,-3640,3492,-1883,-1775,-13947,268438473
20052,-4008,4648,1593,15289,2559,268438473
13944,-3384,6896,797,32767,6438,268438473
10956,-964,8764,-6486,32767,8892,268438473
12836,-3700,13780,-11536,32767,10886,268438473
11592,-3064,12884,-14024,32767,12984,268438473
8060,-1024,12796,-20055,32767,12390,268438473
6876,-660,12844,-27280,32767,14836,268438473
3516,-6816,8636,-23393,32767,24361,268438473
-804,-5048,5396,-11472,32767,32767,268438473
-6192,-6360,6048,-143,31063,32767,268438473
-15140,-7148,10600,7205,17796,32767,268438473
-22688,-3344,15800,1600,3302,13959,268438473
-18144,-6036,16200,-12489,-7233,-18046,268438473
-8584,-2924,8784,-21350,-20177,-32768,268438473
-7920,-7080,4888,-17127,-32768,-32300,268438473
-1504,-9416,6864,-13687,-32768,-32768,268438473
3216,-12344,8088,-7125,-32768,-30866,268438473
11232,-28472,22500,16081,633,-23604,268438473
9648,-9340,11084,19375,-16854,-5071,268438473
8820,-10480,12696,15348,-32768,-4293,268438473
8568,-7404,16588,3176,-32768,-4147,268438473
8984,-6452,15576,-5251,-22480,118,268438473
9196,-6060,11236,-4597,-4806,2167,268438473
8304,-5760,8568,1877,8536,4492,268438473
5588,-3668,5684,9687,15509,8192,268438473
1660,-1428,6116,14621,20124,12110,268438473
-192,-724,11984,13927,26258,16271,268438473
-5416,-2640,15616,9746,32767,21934,268438473
-7684,-2892,12476,9377,32767,29230,268438473
-6624,-2428,12932,16248,32767,32767,268438473
-8896,-2656,14900,22563,32767,32767,268438473
-16632,-4024,16632,24195,32767,30812,268438473
-19180,-2240,16108,21494,32767,22262,268438473
-18280,-1336,13912,20498,32767,9722,268438473
-18616,-564,11048,25154,32767,2826,268438473
-17840,1392,11788,30559,26749,-138,268438473
-18432,2876,12524,29539,16520,-7274,268438473
-15344,3868,12044,17991,1367,-16780,268438473
-12668,1764,8184,-57,-13336,-22856,268438473
-8812,392,6720,-14836,-24545,-21491,268438473
-7544,-1108,5904,-22707,-32768,-19052,268438473
-7644,-368,5592,-24150,-32768,-18801,268438473
-8456,-1380,4268,-24030,-32768,-12294,268438473
-5032,-2892,2620,-22875,-32768,-12130,268438473
-1564,-4460,4812,-18507,-32768,-12479,268438473
4708,-5396,4788,-10025,-32768,-15630,268438473
9724,-5952,10584,-5603,-32768,-21091,268438473
11392,-5876,15112,-6604,-32768,-25295,268438473
17688,-10024,25292,-5133,-24604,-26265,268438473
21504,-1884,13480,-668,1225,-18481,268438473
20648,-7496,13564,-7054,601,56,268438473
12668,-5452,10272,-9468,127,1718,268438473
12016,-6900,10268,-9677,3604,-1356,268438473
10728,-4136,-3184,-19889,-28143,-1844,268438473
11384,-5900,6480,1416,32531,-2304,268438473
11356,-3728,9388,7993,27186,-255,268438473
12176,-8296,12716,14479,32767,-5514,268438473
8644,-5928,8996,17940,32767,-6665,268438473
7984,-5056,17368,23662,32767,-2968,268438473
2936,-5664,12716,29481,32767,3950,268438473
-7004,-3952,8532,15763,32767,10211,268438473
-9972,-2924,13860,6490,32767,12217,268438473
-14028,-968,14224,5749,32767,13671,268438473
-14928,2436,12164,-1705,32767,14663,268438473
-14608,3424,6512,-13750,32767,11115,268438473
-14996,6060,-2928,-29281,27598,8001,268438473
-18324,2184,-4792,-32768,-16100,5963,268438473
-13064,-3016,-1616,-32768,-32768,-7627,268438473
-6584,-3684,1388,-32768,-32768,-26144,268438473
-3016,-4604,7856,-30726,-32768,-27984,268438473
548,-4004,14532,-19105,-32768,-23083,268438473
1088,-3732,15812,-12069,-32768,-18298,268438473
4176,-8352,17744,-9483,-27634,-17678,268438473
5624,-9568,18892,-2259,-13735,-15907,268438473
5880,-8036,18284,6933,414,-9889,268438473
4752,-6832,19736,17949,13493,-4023,268438473
5352,-5148,21544,32767,32767,-1097,268438473
3572,-5588,18880,32767,32767,1588,268438473
-1744,-4344,16220,32767,32767,1365,268438473
-4232,-1592,15700,32767,32767,-4691,268438473
-7608,2996,18560,20074,12747,-5662,268438473
-6260,3908,20652,2733,25349,696,268438473
-9560,4988,12940,-9740,32767,3253,268438473
-10924,8636,-2688,-26992,32767,181,268438473
-18768,3152,-4604,-32768,-15555,3270,268438473
-11900,-452,1096,-32768,-32768,-1546,268438473
-6724,-1348,1576,-32768,-32768,-15410,268438473
-468,-4140,3260,-32768,-32768,-19153,268438473
5240,-11080,9568,-31398,-32768,-20828,268438473
9020,-8580,15256,-17788,-32768,-22230,268438473
12324,-6472,21356,-84,-32768,-22871,268438473
9260,-2380,25252,23942,-7083,-19207,268438473
6572,-1284,19228,26528,20061,-12696,268438473
6316,-5300,14588,11254,24182,-10185,268438473
7136,-4788,15284,2260,32767,-11785,268438473
6864,-4252,10832,7601,32767,-8775,268438473
5476,-2552,9304,13321,17724,-1749,268438473
4384,-480,11804,14682,-4393,2247,268438473