ax, ay, az, gx, gy, gz, temp
-4184,-1380,15540,-9,-183,-5,268438473
-4224,-1544,15560,-93,21,-180,268438473
-4172,-1256,15408,-212,-34,-154,268438473
-4224,-1340,15368,-108,-191,6,268438473
-4344,-1340,15540,-60,-198,84,268438473
-4560,-1548,15436,-251,-374,-70,268438473
-4424,-1500,15276,-302,-488,-255,268438473
-4280,-1444,15152,-77,-660,-279,268438473
-4092,-1648,15516,224,-497,-526,268438473
-3640,-1648,15460,291,260,-631,268438473
-3764,-1692,15076,543,768,-27,268438473
-4028,-1632,14964,943,884,289,268438473
-4084,-1312,15256,1922,1844,-520,268438473
-3916,-1176,15788,2434,1982,-1061,268438473
-4336,-720,16644,883,-528,-335,268438473
-5200,-304,16392,-979,-2701,359,268438473
-5640,-96,15692,-2042,-5457,-719,268438473
-5136,-808,16284,-1613,-8232,-2846,268438473
-3116,-1428,16556,-665,-4019,-2794,268438473
-2740,-1484,16380,-442,-1191,-604,268438473
-3920,-1416,16184,-246,-2105,422,268438473
-3992,-1636,16128,-539,-4707,-703,268438473
-3000,-1524,16508,-1516,-5178,-630,268438473
-2780,-1636,16100,-2362,-3711,-427,268438473
-2464,-1924,15388,-2203,-4838,-310,268438473
-2016,-2268,14560,-1945,-8651,-437,268438473
-748,-2524,15200,-987,-12514,374,268438473
-376,-2340,16164,-1242,-14984,1582,268438473
-220,-1904,17036,-1790,-16236,1733,268438473
564,-1860,17144,-2657,-16006,1177,268438473
1260,-2436,15992,-3671,-18434,1370,268438473
2512,-2576,15364,-3703,-23865,1916,268438473
3504,-2828,15788,-3242,-24512,2653,268438473
4284,-3120,15712,-2614,-18706,959,268438473
4900,-3172,15052,-2925,-15486,-809,268438473
6008,-2868,14540,-4557,-22057,-1742,268438473
8476,-3512,14176,-5084,-24104,-1489,268438473
9484,-3764,13464,-4558,-17594,-1153,268438473
9648,-3628,12032,-4372,-18616,-1012,268438473
10712,-3976,12136,-5613,-26515,-197,268438473
11936,-4452,11648,-5897,-25383,84,268438473
12292,-4052,10792,-4841,-15925,-528,268438473
11864,-4136,9052,-5424,-15574,-1265,268438473
13536,-4576,8556,-7092,-23361,-474,268438473
14356,-4828,8172,-6603,-22167,935,268438473
13716,-4672,6192,-6376,-18613,1471,268438473
13832,-4884,5176,-7172,-21238,1094,268438473
14548,-5524,3088,-7821,-27812,1529,268438473
15520,-5572,2900,-6954,-31046,2528,268438473
15084,-5708,1204,-6527,-22523,2105,268438473
14828,-4960,-1196,-8064,-22351,720,268438473
15836,-6280,-1872,-8886,-23661,-325,268438473
16020,-5396,-2980,-6800,-18729,2007,268438473
14504,-5400,-5112,-7184,-20758,-196,268438473
15088,-5716,-5736,-6234,-17907,-1042,268438473
13548,-5600,-7364,-5202,-15248,-2004,268438473
13492,-5404,-7580,-4741,-17379,-3382,268438473
13916,-5480,-9244,-4696,-15561,-3491,268438473
13828,-5536,-11076,-4329,-15144,-2540,268438473
13040,-5080,-11088,-2291,-15827,-2904,268438473
13212,-4756,-11592,-1610,-15309,-2901,268438473
12156,-4156,-11224,-1364,-14672,-3000,268438473
12496,-4208,-11688,-1897,-12639,-3066,268438473
11708,-3760,-12388,-2616,-13014,-2425,268438473
11360,-3332,-12140,-2071,-13164,-2894,268438473
11560,-3428,-12028,-2561,-11529,-2922,268438473
10828,-3436,-13452,-3958,-10920,-1945,268438473
10212,-3324,-14056,-3705,-12342,-975,268438473
9440,-3044,-14868,-3615,-12092,-510,268438473
9052,-2848,-14816,-3573,-11152,-593,268438473
8696,-2384,-15292,-3389,-11186,-600,268438473
8400,-2448,-15260,-3257,-11808,-263,268438473
7088,-2092,-15860,-3031,-11179,-320,268438473
6240,-1804,-16072,-2716,-10591,-996,268438473
6224,-1812,-16164,-2980,-10437,-1429,268438473
5536,-1592,-17148,-3406,-9753,-1444,268438473
5132,-1180,-17052,-2217,-10074,-1589,268438473
5200,-1348,-17360,-2371,-8142,-1763,268438473
4160,-1212,-17324,-2160,-7992,-1570,268438473
3440,-816,-17704,-1673,-5707,-2559,268438473
3908,-788,-17672,-1859,-2281,-4111,268438473
4472,-948,-18396,-1692,413,-4261,268438473
5252,-1072,-18852,-117,4065,-3369,268438473
5616,-712,-19232,1065,7150,-2534,268438473
6384,-832,-17952,2735,12156,-1761,268438473
6384,-1048,-17224,3475,18806,-1129,268438473
7092,-992,-17408,4613,21676,-620,268438473
8708,-1144,-14336,6683,27378,-79,268438473
7432,-844,-14380,5668,32767,-1765,268438473
10532,-920,-13408,3001,29660,-2906,268438473
11552,-1460,-12008,6652,32767,-2570,268438473
11016,-1540,-9212,6414,32767,-4622,268438473
13180,-2200,-9428,2924,32767,-6058,268438473
16648,-2360,-7604,4945,29508,-2578,268438473
16140,-2296,-4160,5050,32767,-362,268438473
14372,-1708,-3716,1977,32767,-1677,268438473
16628,-1740,-2672,1438,27041,-1550,268438473
17772,-1792,-496,2465,18911,1942,268438473
17044,-1604,2220,2762,20840,4075,268438473
15364,-1392,3348,1876,27585,2821,268438473
15148,-1516,3856,1563,32249,-805,268438473
15672,-1920,5592,3218,32767,-2347,268438473
15520,-2060,7956,3370,32767,-2018,268438473
14668,-1604,9152,1671,31068,-1158,268438473
13368,-1192,10896,522,28758,332,268438473
11212,-1440,10772,300,25201,1616,268438473
10292,-1564,11952,347,19885,1950,268438473
9472,-1912,12532,535,17724,2001,268438473
8976,-1672,13172,885,17081,1714,268438473
8452,-1976,13372,1618,16189,1259,268438473
8284,-1960,13804,2260,15172,1571,268438473
7280,-1756,14532,2691,12998,2161,268438473
6120,-1708,15428,2615,12977,1710,268438473
5344,-1332,15660,2294,13776,610,268438473
5140,-1088,16128,1743,12796,-24,268438473
3924,-900,16020,1512,12025,-123,268438473
3520,-876,17084,1299,10929,-193,268438473
3016,-776,16688,17,8892,59,268438473
3364,-772,16608,171,9489,422,268438473
2604,-832,16472,176,9254,755,268438473
1872,-1044,16456,-800,6717,349,268438473
1900,-1012,16820,-1728,3853,580,268438473
1972,-1332,16500,-1012,7892,1662,268438473
1308,-1680,16668,-309,7712,2218,268438473
908,-1604,16344,-24,7370,2407,268438473
-172,-1164,16404,759,6290,2549,268438473
-56,-2080,15596,-1672,408,923,268438473
-804,-1304,15320,742,3759,363,268438473
-664,-1188,14952,4076,4752,-53,268438473
-464,-1200,15928,5477,4833,573,268438473
-1256,-900,16304,4459,5832,1924,268438473
-3628,340,16092,1451,7851,3081,268438473
-1908,1084,16160,-2170,12834,5339,268438473
-888,284,17028,-3103,14557,5473,268438473
-3472,-816,15580,-3330,15589,4165,268438473
-4244,-792,16404,-4072,12254,2591,268438473
-5476,-904,15848,-5766,15002,939,268438473
-5948,-1536,14952,-5004,14379,-600,268438473
-6432,-1960,14564,-2887,11798,-1990,268438473
-7544,-1940,14352,2752,12771,-4435,268438473
-8728,-1092,14424,8072,14750,-6875,268438473
-9252,-1788,14648,12372,18037,-8143,268438473
-9200,-1044,11668,14771,21219,-9385,268438473
-10784,540,11664,10101,21323,-7258,268438473
-11204,-528,12292,4802,21798,-6320,268438473
-11856,-168,11144,2325,24975,-7252,268438473
-11668,-456,9620,1957,23323,-7281,268438473
-11600,-876,8172,2082,21033,-5196,268438473
-13028,-1532,7540,3002,21248,-3101,268438473
-13848,-1228,6428,1682,22409,-3109,268438473
-13692,-964,4240,2144,21766,-2841,268438473
-14324,-1340,3716,2891,18791,-929,268438473
-15572,-1348,3168,1330,16675,-1886,268438473
-15840,-1312,2304,7,14302,-2880,268438473
-15492,-1332,1236,751,12238,-3934,268438473
-15476,-1836,820,2064,11973,-3578,268438473
-15416,-2084,560,2582,14772,-2909,268438473
-15356,-2616,-84,2114,18333,-2750,268438473
-14636,-2524,-1324,526,15088,-1032,268438473
-14960,-2752,-1612,-505,12928,603,268438473
-15168,-2376,-2284,-591,16696,538,268438473
-15176,-2408,-3564,-180,19233,132,268438473
-14988,-2136,-5256,-1557,16939,331,268438473
-14988,-2452,-5380,-2630,14663,888,268438473
-15084,-2156,-8164,-4541,11848,1394,268438473
-14140,-1464,-8100,-4012,14007,1184,268438473
-14268,-1588,-8744,-3482,14504,481,268438473
-14236,-1584,-9808,-2199,16389,-231,268438473
-13492,-1796,-11208,57,17456,-2426,268438473
-12440,-2048,-11104,-62,12267,-2853,268438473
-11504,-2324,-11296,261,10791,-2280,268438473
-11192,-2240,-11208,1120,12907,-1587,268438473
-11164,-2392,-11564,485,14062,-1671,268438473
-10276,-2576,-12524,-743,10979,-1741,268438473
-9596,-2500,-13088,-654,9073,-728,268438473
-9344,-2156,-12568,274,10328,728,268438473
-9376,-1868,-12848,-165,14133,551,268438473
-9132,-2292,-14140,-1528,14084,-186,268438473
-8456,-2500,-15216,-1605,14372,-1214,268438473
-7548,-2320,-15768,-570,11564,-1668,268438473
-6932,-2196,-16208,-561,9550,-1216,268438473
-6456,-2392,-16200,-96,9695,-1037,268438473
-6364,-2248,-16116,149,10478,-1275,268438473
-6112,-1964,-16680,95,11530,-1627,268438473
-5140,-2312,-17776,1694,14492,-2239,268438473
-4376,-2576,-18540,2305,12649,-2036,268438473
-3964,-3020,-18372,2529,7593,-2195,268438473
-3524,-3192,-17760,3307,5615,-2651,268438473
-2840,-3280,-16644,2891,4747,-2285,268438473
-2496,-3400,-16688,2652,6261,-1537,268438473
-2512,-3568,-17120,2211,8678,-1277,268438473
-1888,-3844,-17092,1838,5461,-1858,268438473
-1248,-4124,-16560,1471,1535,-1453,268438473
-632,-4044,-16308,321,-68,121,268438473
-1100,-3596,-16140,-700,1215,1149,268438473
-1404,-3480,-17016,-1220,1720,972,268438473
-1400,-3552,-17576,-700,529,888,268438473
-1424,-3360,-17708,-388,-584,986,268438473
-1468,-3380,-17312,-308,-1073,809,268438473
-1428,-3552,-17092,-516,-354,457,268438473
-1616,-3652,-17480,-613,474,380,268438473
-1444,-3620,-17748,-388,278,6,268438473
-1304,-3472,-17564,-100,118,-82,268438473
-1200,-3552,-17512,-54,-703,-67,268438473
-1392,-3612,-17384,-59,-1128,168,268438473
-1432,-3512,-17104,-88,-931,204,268438473
-1708,-3404,-17200,-353,-920,362,268438473
-1712,-3320,-17336,-295,-914,412,268438473
-1856,-3344,-17576,-152,-761,204,268438473
-1908,-3376,-17408,-113,-817,-62,268438473
-1592,-3280,-17372,126,-1083,-226,268438473
-1624,-3424,-17252,96,-745,-111,268438473
-1564,-3516,-16960,65,-882,56,268438473
-1668,-3628,-17152,-223,-832,99,268438473
-1612,-3612,-17184,-225,-1515,351,268438473
-1704,-3612,-17488,-218,-2571,788,268438473
-2116,-3308,-17416,-218,-3385,1234,268438473
-2440,-3332,-17920,-370,-4922,1198,268438473
-3408,-3448,-18124,-410,-9119,1607,268438473
-2832,-3748,-18312,-1029,-14639,2497,268438473
-3664,-3524,-18140,-1815,-25069,3999,268438473
-5588,-3156,-16128,-1279,-32768,4462,268438473
-6880,-2480,-12896,-2222,-32768,4031,268438473
-8204,-2572,-13924,-3653,-31780,4876,268438473
-10596,-1744,-12656,-4061,-32768,6608,268438473
-12164,-1156,-11940,-3747,-32768,5802,268438473
-13496,-400,-9904,-2800,-32768,3877,268438473
-14552,-1132,-8464,-2456,-32768,1650,268438473
-14824,-652,-6008,-3311,-32768,1317,268438473
-15016,-1080,-4164,-3808,-32768,1479,268438473
-15104,-712,-1356,-3047,-32768,2087,268438473
-15136,-920,528,-1863,-32768,1687,268438473
-14592,-972,2444,-647,-32768,1675,268438473
-14184,-1128,4332,-730,-32768,1918,268438473
-13476,-656,6884,-1522,-32768,2044,268438473
-12348,-916,9320,-1593,-32768,1968,268438473
-11464,-928,10856,-17,-29487,1430,268438473
-10196,-676,12320,91,-26431,259,268438473
-10164,-412,12756,-2159,-27893,38,268438473
-8776,-352,14140,-3918,-27625,-296,268438473
-7816,-592,14204,-3573,-24108,-906,268438473
-6400,-868,14204,-2324,-19641,-2321,268438473
-5684,-992,14828,-1386,-16229,-3061,268438473
-4668,-1028,15504,-2398,-17613,-2324,268438473
-3124,-1604,15680,-2132,-15981,-1908,268438473
-2316,-1644,15600,-1014,-11555,-1078,268438473
-2076,-1640,15680,-924,-9917,284,268438473
-2016,-1848,16204,-1039,-7824,769,268438473
-1604,-1608,15944,-596,-4220,480,268438473
-1932,-1636,15464,11,-2179,-196,268438473
-1692,-1680,15812,-3,-2921,-557,268438473
-384,-1492,15748,541,-477,-713,268438473
-996,-2064,16100,73,-48,-947,268438473
-1496,-932,15848,-860,514,-831,268438473
-2036,-1916,15572,-2789,-3244,-1224,268438473
-1436,-1912,15800,-3377,-4615,-1614,268438473
-1012,-2080,15900,-2896,-2281,-1032,268438473
-916,-2148,15568,-2808,-398,-815,268438473
-804,-2176,15460,-2612,-577,-842,268438473
-576,-2728,15520,-2965,-3473,-1006,268438473
-168,-2768,16400,-3173,-6838,-422,268438473
132,-2608,16216,26,-3750,-833,268438473
68,-2304,16620,3478,-3326,-1360,268438473
76,-1732,16996,2327,-6868,-759,268438473
948,-1900,17040,-1701,-13833,-579,268438473
2180,-2064,17084,-3092,-19872,34,268438473
3220,-2648,17016,-654,-17490,79,268438473
3816,-2644,16720,-17,-15154,202,268438473
4952,-2908,15916,-1297,-16870,390,268438473
5624,-3028,14864,-1956,-19860,881,268438473
6484,-3196,14560,128,-16405,739,268438473
6804,-2880,14648,1641,-13214,284,268438473
7340,-3084,13808,825,-15141,264,268438473
7884,-3072,14096,701,-17742,715,268438473
8748,-2720,13524,1327,-16247,480,268438473
9356,-2700,14060,-229,-13746,108,268438473
10088,-2636,12824,-2221,-13922,-605,268438473
11176,-2804,11368,-3575,-21466,-277,268438473
12468,-3004,11260,-1853,-22211,-256,268438473
12488,-3084,10404,-79,-17649,-848,268438473
13164,-2984,9848,-1486,-18282,-1207,268438473
14012,-2752,8972,-2500,-19043,-1425,268438473
14532,-2972,7468,-2128,-18705,-1757,268438473
14524,-2884,7132,-1093,-17773,-1919,268438473
15340,-2880,6268,-1251,-16871,-2046,268438473
15952,-2796,5660,-2790,-17034,-1548,268438473
15640,-2732,4340,-2830,-14905,-1327,268438473
15840,-2812,2884,-3040,-16195,-1320,268438473
16116,-2788,2052,-2909,-18413,-778,268438473
15452,-2328,1104,-1151,-17440,-876,268438473
15528,-2124,692,-534,-19281,-1882,268438473
15952,-2236,-256,-1082,-19057,-2251,268438473
15776,-2316,-1984,-2000,-22555,-2417,268438473
15876,-1968,-1740,-1842,-19977,-3191,268438473
18336,-2244,-3640,-1130,-16463,-318,268438473
14696,-2036,-4844,-3235,-20059,-843,268438473
15876,-1788,-4828,-2746,-17345,-556,268438473
14472,-1572,-7320,-2671,-17319,-1617,268438473
14196,-1336,-7836,-2431,-16580,-2486,268438473
14912,-1416,-8472,-2090,-17825,-3059,268438473
14936,-1224,-9236,-2343,-19567,-1715,268438473
13612,-616,-10164,-1570,-18134,-978,268438473
12912,-984,-10600,-1439,-17625,-1425,268438473
12316,-932,-11908,-2209,-16526,-1755,268438473
11528,-628,-13188,-2507,-16284,-2618,268438473
12020,-588,-13644,-2060,-17538,-3142,268438473
11164,-44,-14472,-2502,-18107,-2290,268438473
10540,-412,-16048,-2319,-18975,-1518,268438473
9648,-552,-16560,-183,-17166,-958,268438473
8168,-200,-17156,1214,-15636,-193,268438473
7188,-272,-16340,1164,-17531,-846,268438473
7416,-764,-15380,-341,-18484,-1082,268438473
6664,-872,-15784,-2549,-14722,305,268438473
5588,24,-17488,-4045,-11578,419,268438473
4856,320,-18324,-2823,-11452,298,268438473
4476,132,-18248,-1268,-10852,175,268438473
3972,280,-17952,-1475,-10402,78,268438473
3212,188,-18056,-1202,-8198,-13,268438473
4116,-180,-18148,-1116,-8707,1373,268438473
2524,792,-17232,-1198,-6460,691,268438473
1620,592,-17036,-983,-6222,1017,268438473
1364,636,-16612,-1518,-4015,884,268438473
1200,688,-17708,-2296,-4,960,268438473
1036,776,-19016,-2851,3128,1013,268438473
968,752,-19812,-1120,6579,548,268438473
2004,312,-19192,1266,10444,625,268438473
3200,80,-18804,2829,15196,1653,268438473
3684,632,-18516,3260,17015,2885,268438473
4548,1436,-17760,3628,18819,3470,268438473
5476,1324,-16584,4758,24176,2873,268438473
6496,904,-16212,3842,25858,1544,268438473
7880,1012,-15872,3325,25081,902,268438473
9224,360,-14788,4538,25148,1452,268438473
9516,-712,-13012,5027,27766,1624,268438473
10820,-1428,-12724,3961,26184,1925,268438473
12068,-1080,-12256,3293,21343,2839,268438473
12416,-1316,-9844,4283,20960,3057,268438473
12500,-2180,-10064,3025,23275,1301,268438473
14548,-2148,-9548,1003,16713,677,268438473
15352,-2012,-7168,3032,18862,1411,268438473
15252,-2220,-7248,3600,22712,589,268438473
16096,-3152,-7152,848,14340,265,268438473
17424,-2352,-4756,2404,13569,2775,268438473
16056,-2028,-3472,3796,19551,2699,268438473
15196,-2088,-2472,3436,25564,-404,268438473
16540,-2632,-2104,1618,17951,-1441,268438473
17644,-2732,-540,2164,15270,1590,268438473
16268,-2520,968,2998,19654,3481,268438473
14636,-2644,1500,2237,24524,1449,268438473
15084,-2988,840,364,20976,-1086,268438473
16696,-3224,2304,1449,16162,-180,268438473
16668,-2952,4296,2980,16724,1679,268438473
16404,-2312,5164,2098,20373,1294,268438473
15520,-2056,5196,2070,23003,-277,268438473
15296,-2396,6408,3187,20594,-96,268438473
15312,-2252,8424,3918,17321,1486,268438473
14664,-2632,10508,4094,18776,2930,268438473
12544,-2204,10536,2507,21704,2958,268438473
11692,-2784,10824,2237,19207,1970,268438473
10684,-2572,11716,1915,17343,1934,268438473
9800,-2692,12260,1781,15615,2361,268438473
8708,-2560,12512,1967,16358,1637,268438473
8144,-2432,13356,2411,15747,533,268438473
7784,-2440,14196,2547,14540,-233,268438473
7252,-2148,14828,1991,13116,-233,268438473
6724,-1840,15232,1989,14358,-379,268438473
5788,-1576,15064,2030,13591,-1264,268438473
4804,-1136,15764,2516,10752,-1884,268438473
5352,-1672,15928,2378,10392,-934,268438473
4828,-1884,16360,2158,14718,-1072,268438473
3956,-1504,15948,2511,16618,-900,268438473
3212,-1228,16012,2414,12416,-235,268438473
2492,-1212,16648,1923,9280,729,268438473
1608,-1444,16420,1775,11151,662,268438473
1300,-1508,16320,1604,11518,202,268438473
700,-1300,16392,1253,10753,558,268438473
-80,-980,16016,1366,10331,607,268438473
-460,-664,16196,1837,10505,247,268438473
-992,-644,16172,2055,12443,-114,268438473
-1812,-512,16164,2230,13394,44,268438473
-2560,-432,15960,1640,13600,8,268438473
-2776,-132,16092,1626,14233,91,268438473
-3712,-304,15520,1449,15467,520,268438473
-4836,-192,15248,1443,16097,711,268438473
-5608,-356,14712,1100,16162,701,268438473
-6340,28,14532,1036,15588,683,268438473
-7096,-972,14604,879,17866,299,268438473
-8464,236,13920,625,16449,157,268438473
-8780,244,14032,451,15709,-403,268438473
-9968,16,12844,235,17280,-1015,268438473
-11016,-104,11832,118,16696,-1528,268438473
-11560,304,11892,365,15691,-2838,268438473
-11268,-24,10572,379,17633,-3343,268438473
-11468,-444,9884,989,21597,-3354,268438473
-12220,-288,9200,1069,21530,-3154,268438473
-13380,-332,8244,36,20366,-3197,268438473
-13644,-1204,7176,-342,22361,-3731,268438473
-14360,-1416,5108,42,23254,-3090,268438473
-14708,-1148,3784,1135,20542,-1686,268438473
-14992,-540,3152,2626,17708,-1070,268438473
-15584,-844,2584,2760,16235,-1389,268438473
-15820,-1204,1644,2667,17332,-2069,268438473
-15784,-1000,632,1531,15152,-1823,268438473
-15996,-932,-148,1575,13842,-1595,268438473
-15924,-1348,-820,1957,14623,-1893,268438473
-15772,-1340,-1628,2039,14702,-1845,268438473
-15844,-1492,-2576,1982,14375,-1278,268438473
-15820,-1624,-2956,1555,14036,-1472,268438473
-15440,-1896,-3704,1343,13438,-1707,268438473
-15188,-1896,-4376,1110,14095,-1447,268438473
-14480,-1668,-5220,245,13772,-1167,268438473
-14392,-1720,-5356,73,13979,-698,268438473
-13880,-2028,-6400,-529,16376,-829,268438473
-13452,-1548,-7300,-1314,17017,112,268438473
-13008,-1744,-8096,-2166,17489,1019,268438473
-12756,-1660,-9100,-2652,17302,1312,268438473
-12372,-1968,-10656,-2791,17185,1113,268438473
-12040,-1372,-11272,-1797,16884,434,268438473
-11856,-1652,-12680,-1118,16811,-529,268438473
-11436,-1496,-13760,99,17142,-1142,268438473
-10972,-1068,-13712,1265,16718,-1860,268438473
-10408,-1324,-13828,1223,14303,-3229,268438473
-9492,-1672,-14456,1112,12277,-3991,268438473
-8732,-2072,-14924,1554,11778,-4528,268438473
-7988,-2176,-15732,1835,12671,-4089,268438473
-7236,-2196,-15432,1564,10939,-3305,268438473
-6292,-2752,-15452,465,9281,-2720,268438473
-5772,-3156,-15844,767,10900,-2446,268438473
-5500,-2852,-16076,805,12645,-1765,268438473
-4808,-2972,-16564,372,12995,-1877,268438473
-3600,-2784,-18116,627,11370,-1954,268438473
-3364,-3240,-17092,370,10256,-1312,268438473
-2644,-3084,-17708,991,9981,-1233,268438473
-1864,-3476,-18112,1252,8032,-1173,268438473
-1832,-3436,-17672,1654,5763,-385,268438473
-1940,-3032,-17092,2117,5427,-196,268438473
-1272,-3356,-17136,1263,6704,-600,268438473
-1068,-3220,-16752,890,6999,-152,268438473
-856,-3484,-17236,1070,8274,-76,268438473
-536,-3848,-17500,376,6429,124,268438473
-348,-4076,-17448,266,3510,392,268438473
-516,-3552,-17136,69,1938,940,268438473
-352,-3024,-17404,-567,3388,723,268438473
-224,-3296,-17988,-1401,3915,265,268438473
120,-3444,-18364,-1174,1827,296,268438473
416,-3412,-18412,-469,-107,607,268438473
728,-3480,-18284,729,-700,927,268438473
908,-3864,-18336,1452,-2701,1272,268438473
428,-3920,-17528,1212,-5057,2192,268438473
-80,-4044,-17392,837,-6108,3013,268438473
-1012,-4444,-17540,672,-8663,3820,268438473
-1960,-4088,-17244,-99,-14558,4729,268438473
-2708,-3616,-17168,467,-16939,5030,268438473
-3680,-2968,-18048,254,-22278,4783,268438473
-4384,-3156,-17280,-65,-29216,4782,268438473
-6296,-3096,-15980,1187,-30812,5726,268438473
-8548,-2796,-14024,861,-30579,5819,268438473
-8956,-2588,-12292,-1518,-28277,5483,268438473
-9956,-2628,-12304,-1786,-22333,6002,268438473
-11020,-2328,-11692,-1038,-19890,6639,268438473
-11580,-1936,-10884,-1109,-18467,6509,268438473
-12792,-1672,-9380,-2554,-19111,6196,268438473
-13220,-1196,-10068,-2627,-16357,4345,268438473
-12856,-1420,-10040,-1466,-13869,2505,268438473
-13012,-1420,-8996,-824,-15972,3167,268438473
-14116,-1352,-8348,-537,-17733,4087,268438473
-14756,-788,-7188,-1055,-19075,3773,268438473
-14924,-572,-6852,-1762,-20772,2319,268438473
-14828,-588,-5520,-1117,-21733,1929,268438473
-14980,-204,-3652,-132,-21715,1970,268438473
-15532,8,-2716,-245,-21613,2121,268438473
-15540,-76,-1296,-484,-21127,2177,268438473
-15324,-48,-140,-770,-20137,1613,268438473
-15456,-32,1208,-1384,-21280,1589,268438473
-15380,192,2672,-2036,-22104,1937,268438473
-15188,108,3284,-1680,-19401,2152,268438473
-14812,64,4296,-2517,-19776,2056,268438473
-14696,172,5436,-3587,-21449,2653,268438473
-14212,164,6924,-2960,-19160,2928,268438473
-13852,224,7956,-2182,-13126,2331,268438473
-13812,544,8040,-2525,-9309,1446,268438473
-13692,648,8288,-3254,-9660,618,268438473
-13060,360,8652,-3013,-12041,-374,268438473
-12884,460,9036,-2220,-11441,-856,268438473
-11988,-36,9524,-1736,-9980,-1704,268438473
-11828,156,9944,-2394,-10873,-973,268438473
-11884,-16,10868,-2940,-11892,-794,268438473
-11288,-376,10584,-2735,-11372,-1516,268438473
-10528,-532,10976,-1946,-11999,-1019,268438473
-9936,-848,11476,-2199,-13311,-291,268438473
-9700,-544,12384,-3009,-16520,499,268438473
-8736,-792,12860,-3085,-16755,260,268438473
-7944,-1016,13324,-2634,-16191,163,268438473
-7416,-676,13948,-2803,-17376,786,268438473
-6792,-816,14300,-3061,-18199,419,268438473
-5420,-1252,14644,-4583,-22766,125,268438473
-4180,-2296,15824,-991,-10049,-668,268438473
-3612,-1684,15564,548,-7777,-699,268438473
-4208,-1536,15528,485,-6290,-570,268438473
-3336,-1688,15532,-633,-6544,-1161,268438473
-2780,-1776,15180,-1459,-9391,-706,268438473
-2236,-1808,15660,-840,-10545,-143,268438473
-2152,-1612,16316,197,-9433,75,268438473
-1416,-1500,16500,-596,-9755,-138,268438473
-1000,-1300,16424,-1311,-11779,-257,268438473
-304,-1468,16412,-1441,-13404,-277,268438473
164,-1988,16544,-1740,-14475,57,268438473
1676,-1832,16520,-2136,-14021,-9,268438473
2376,-2048,16376,-1994,-14756,291,268438473
3308,-2204,16468,-1587,-14223,890,268438473
4068,-1960,16044,-1411,-14318,774,268438473
4684,-2184,16508,-2342,-16002,418,268438473
5208,-1936,16384,-1574,-13226,-85,268438473
5688,-2404,15672,-2859,-14094,-208,268438473
6192,-2328,15536,-3000,-15967,-1576,268438473
7260,-2684,14916,-2043,-13490,-3668,268438473
7680,-2572,14356,-2417,-15210,-3812,268438473
8592,-2548,14380,-2997,-19559,-3243,268438473
9504,-2564,13804,-2875,-18779,-3418,268438473
10340,-2376,12784,-3404,-17547,-3659,268438473
13232,-3292,11364,-5514,-24228,-1544,268438473
12928,-2792,10992,-6238,-29036,-657,268438473
13492,-2728,9820,-4291,-23200,-1246,268438473
14224,-3064,8588,-4485,-17832,-1932,268438473
14900,-3360,7580,-7208,-21921,-1536,268438473
15164,-3440,6184,-7332,-23697,-932,268438473
15668,-3576,5124,-4935,-19092,-391,268438473
15008,-3424,3960,-5184,-19807,-19,268438473
15036,-3700,2616,-6649,-23194,-565,268438473
15628,-3664,1068,-6066,-24136,-1224,268438473
15504,-3660,860,-3752,-20893,-831,268438473
15372,-3480,-460,-3198,-15322,-953,268438473
15548,-3512,-2032,-5075,-17549,-977,268438473
15376,-3292,-2916,-5652,-21348,-643,268438473
15504,-3076,-3532,-4801,-19051,-935,268438473
15484,-2920,-4544,-4917,-12951,-1415,268438473
15592,-2688,-6064,-6851,-13921,-1481,268438473
15948,-2620,-7524,-6738,-14811,-1392,268438473
16040,-2516,-7912,-4855,-13643,-1387,268438473
16240,-3596,-7760,-4646,-11391,-1153,268438473
14788,-2380,-9388,-4526,-8442,-913,268438473
14596,-2368,-9468,-5328,-12606,-767,268438473
14608,-2356,-9648,-3056,-9395,-636,268438473
13716,-2088,-9476,-1487,-6054,-467,268438473
12980,-1952,-9952,-2334,-5556,-922,268438473
12644,-2228,-10832,-4021,-8256,-2944,268438473
13120,-416,-10080,-5164,-10221,-2762,268438473
12480,-1160,-10808,-3576,-6912,-5397,268438473
13188,-1216,-11544,-2725,-7573,-4983,268438473
13832,-832,-11652,-2376,-8307,-3064,268438473
12992,64,-12156,-2535,-9725,-2032,268438473
12424,104,-11788,-3404,-10602,-1572,268438473
11476,120,-12340,-3739,-8864,-1762,268438473
10872,80,-12684,-3457,-7746,-2120,268438473
10708,164,-13192,-4232,-7135,-2737,268438473
10532,328,-13872,-4400,-4814,-3082,268438473
11572,1768,-14296,-3748,-3845,-2897,268438473
11432,1404,-15480,-2360,-3094,-2102,268438473
11636,1220,-14300,-1001,-290,-1127,268438473
11484,1444,-14404,938,3037,-557,268438473
11740,1772,-14576,2555,7289,-242,268438473
11976,2372,-14532,2335,1801,279,268438473
11960,1768,-13420,1163,-1928,896,268438473
10792,1276,-13440,-578,-95,982,268438473
10268,1568,-14140,-1569,-567,551,268438473
10780,1116,-14400,-1236,-1158,-769,268438473
10740,948,-14548,-249,-3062,-367,268438473
9928,568,-13936,816,-2213,266,268438473
9344,732,-13856,1341,865,-379,268438473
9652,888,-14132,7,-2067,-1051,268438473
10204,1292,-13800,-1396,-5293,-1254,268438473
9956,356,-14176,-1798,-5188,-1273,268438473
9508,688,-14604,-2039,-7540,-638,268438473
9440,2900,-13736,-2148,-6905,-1572,268438473
9024,2196,-14376,-3246,-6917,-2853,268438473
9620,2280,-14828,-3241,-5921,-3195,268438473
9728,2396,-15308,-1904,-3386,-1978,268438473
9292,2084,-15880,-1697,-2672,-577,268438473
8764,2264,-15912,-1090,-1513,342,268438473
8240,2608,-16076,-837,-1341,317,268438473
8260,-40,-16280,-786,-1847,-269,268438473
9268,3064,-15412,-364,-1060,625,268438473
8816,5280,-15360,303,-2720,1862,268438473
8076,2244,-14848,-51,2167,644,268438473
8464,2136,-15964,764,3585,1196,268438473
8240,2688,-16116,2079,4483,668,268438473
9388,2020,-15140,2268,3001,780,268438473
9500,1920,-15028,3405,5622,2087,268438473
9060,2004,-15152,3577,10302,2780,268438473
9356,1572,-15128,3661,12557,2871,268438473
10092,1272,-14768,5555,15409,2639,268438473
11276,832,-13624,7428,17450,2998,268438473
12876,796,-12856,7542,19067,4110,268438473
12820,404,-11296,7796,20787,6423,268438473
12012,132,-9772,8185,23470,7066,268438473
12884,-804,-9036,8379,29269,4818,268438473
14392,-1496,-9044,7263,31364,3324,268438473
14800,-1808,-7520,7444,22496,3373,268438473
16032,-2220,-4908,8268,14048,4423,268438473
16360,-2832,-3496,8808,18293,6112,268438473
15952,-2668,-3448,6553,24412,6462,268438473
15508,-3312,-2000,4829,25769,5612,268438473
15040,-3616,-912,5432,24565,5157,268438473
15232,-3928,76,6600,23266,3821,268438473
16180,-4048,1172,6211,21705,1669,268438473
16992,-4184,2416,6521,23256,1723,268438473
16384,-4268,4096,7825,24925,2875,268438473
15376,-4400,5976,9429,26680,3702,268438473
14452,-3776,7660,10422,30399,3561,268438473
13252,-4212,8460,9996,30692,2541,268438473
13516,-3728,10408,8055,25588,2871,268438473
11980,-3412,12152,5886,22334,3770,268438473
10436,-3428,13260,3384,20492,4477,268438473
9236,-3432,13100,2747,20517,4142,268438473
8468,-3404,13676,3253,20634,3694,268438473
7516,-3316,14328,3405,19605,3686,268438473
6456,-3332,15024,4097,20365,3349,268438473
5188,-3084,15616,3859,18887,2606,268438473
4544,-3024,16524,2941,18182,1805,268438473
3792,-3316,16216,2409,20068,1788,268438473
2272,-2692,15840,2431,20390,1473,268438473
1188,-2808,15904,2495,18420,1121,268438473
792,-2796,16308,2288,15348,940,268438473
8,-2544,16756,1860,13852,804,268438473
-640,-2396,16356,1503,16090,545,268438473
-1912,-2352,15744,1393,16182,113,268438473
-2664,-2288,16380,1585,14577,-254,268438473
-2984,-2212,16096,1204,13612,-383,268438473
-3784,-2000,15772,799,14132,133,268438473
-5080,-2812,14548,860,14926,2,268438473
-6140,-2096,14192,1949,14867,-460,268438473
-6764,-1716,14388,4002,14170,-1417,268438473
-6768,-1984,14576,4646,15994,-2012,268438473
-7560,-1348,13708,3907,18118,-490,268438473
-7496,-1688,14092,1777,14867,1462,268438473
-8604,-1252,13052,344,16871,2882,268438473
-9476,-1360,11672,861,21306,2476,268438473
-10404,-1148,9956,3149,24989,1374,268438473
-11488,-1208,9484,5195,25070,1715,268438473
-12468,-416,8760,5858,25751,2781,268438473
-12984,-312,9680,3388,25240,2502,268438473
-14744,356,6324,1234,23564,2051,268438473
-14912,1016,5236,687,19581,746,268438473
-15576,424,4040,1906,19406,-428,268438473
-15764,588,3288,2669,17867,-1340,268438473
-15984,280,2784,2763,16429,-1941,268438473
-15996,68,1672,2322,16018,-2431,268438473
-15620,156,1300,2157,15714,-2447,268438473
-15736,-448,460,2187,16153,-1906,268438473
-15668,-552,-300,2255,15828,-1346,268438473
-15672,-552,-732,2505,16263,-1274,268438473
-15976,-368,-2232,1772,15875,-1533,268438473
-15004,-176,-2788,1829,14067,-931,268438473
-14832,-668,-2832,875,16176,-2229,268438473
-14052,-1032,-5048,1103,16412,-1621,268438473
-15380,-664,-6308,1725,16718,31,268438473
-14752,-712,-6472,2628,15393,-1104,268438473
-14176,-828,-7944,3176,17212,-2127,268438473
-13856,-972,-8620,2393,15724,-1668,268438473
-13724,-1284,-9260,765,13315,-1798,268438473
-13124,-1404,-10024,592,12606,-1888,268438473
-12600,-1548,-10220,217,11527,-1844,268438473
-12176,-1560,-11000,-91,11493,-1923,268438473
-11768,-1232,-11488,-698,12201,-2186,268438473
-11300,-1512,-12316,-1583,11005,-1792,268438473
-10988,-1904,-13572,-733,13002,-1760,268438473
-10660,-1904,-14028,657,13303,-1891,268438473
-10024,-1764,-13680,1424,13176,-2153,268438473
-9824,-2108,-13892,1261,13123,-2613,268438473
-8584,-2248,-13904,519,12579,-3105,268438473
-7896,-2544,-14732,496,14297,-2609,268438473
-7136,-2604,-14716,1411,16201,-2550,268438473
-6668,-2904,-15332,-26,14961,-2994,268438473
-5640,-3104,-16056,-257,13107,-3133,268438473
-4764,-3172,-16632,885,13118,-3079,268438473
-4124,-3364,-17172,1341,12904,-2734,268438473
-4368,-3368,-16196,1213,11641,-3039,268438473
-2952,-3620,-15876,2472,8275,-2418,268438473
-3056,-3312,-16528,1958,9389,-1846,268438473
-2440,-3636,-16868,659,8247,-1798,268438473
-1996,-3592,-17032,204,5993,-1463,268438473
-1708,-3428,-17488,448,6627,-313,268438473
-1624,-3368,-17780,-287,5963,-240,268438473
-1388,-3624,-18416,-719,4545,-393,268438473
-1352,-3808,-18304,-126,2392,-380,268438473
-692,-3956,-18120,456,-584,-106,268438473
-576,-3660,-17296,-54,-4005,836,268438473
-1140,-3568,-17672,-979,-4273,1869,268438473
-1668,-3476,-18524,-534,-5968,2596,268438473
-2308,-3504,-18456,-114,-8694,3203,268438473
-2952,-3592,-17948,206,-13179,4018,268438473
-3948,-3288,-17252,205,-16902,4742,268438473
-5268,-3128,-16804,156,-18641,4265,268438473
-5812,-3096,-16440,-70,-20357,4127,268438473
-7188,-2784,-14836,510,-20593,4695,268438473
-8336,-2968,-14240,-1001,-21875,3980,268438473
-8936,-2696,-13560,-3210,-27395,4171,268438473
-9528,-2532,-13404,-4409,-26824,4825,268438473
-10724,-2152,-14308,-1399,-24562,4868,268438473
-12200,-1540,-12280,280,-25861,5095,268438473
-13112,-852,-11408,-1974,-31937,4702,268438473
-13716,-1224,-9000,-4976,-32768,4485,268438473
-14256,-1000,-6980,-3211,-32768,2299,268438473
-14620,-1032,-6400,-515,-32768,1213,268438473
-15152,-824,-3668,1072,-31120,1084,268438473
-15104,-492,-2424,197,-32104,495,268438473
-14368,-1152,452,-920,-32548,816,268438473
-15296,-496,2048,-909,-27245,1780,268438473
-14960,-568,2364,-1873,-24859,1631,268438473
-14508,-768,3848,-2637,-24732,1098,268438473
-13800,-960,5716,-1410,-21017,1340,268438473
-14148,-624,7048,-62,-15500,1188,268438473
-14140,-304,6556,-1606,-16282,467,268438473
-13232,-952,7696,-3188,-20059,343,268438473
-12172,-904,8704,-2040,-18073,838,268438473
-12324,-1344,8332,310,-13530,1323,268438473
-11456,-696,10312,475,-10475,912,268438473
-10932,-1004,10452,-1815,-15166,1020,268438473
-10076,-648,10584,-4136,-19765,1860,268438473
-9736,-196,11392,-3787,-20022,2621,268438473
-9144,-500,11564,-690,-14328,2788,268438473
-8604,-652,12540,1327,-12735,1083,268438473
-8260,216,13452,813,-14329,3,268438473
-8196,112,14300,-107,-13622,-13,268438473
-6804,140,14652,-651,-12584,-1127,268438473
-6488,-184,15284,-464,-12143,-2277,268438473
-5220,-552,15424,-724,-12292,-2132,268438473
-4580,-532,15252,-2261,-14276,-1300,268438473
-3372,-892,15732,-2910,-16154,-244,268438473
-3196,-1296,16232,-2158,-10874,-376,268438473
-2560,-1384,16316,-2830,-12594,-306,268438473
-1788,-1356,16500,-2187,-9401,296,268438473
-1436,-1640,16288,-1877,-7366,74,268438473
-1052,-1364,16540,-830,-3875,-280,268438473
-1240,-1512,16204,299,-713,-774,268438473
-1244,-1572,16268,259,-48,-618,268438473
-1452,-1448,16312,205,605,-746,268438473
-1428,-1288,16032,-5,494,-924,268438473
-1560,-1536,15812,-201,-50,-839,268438473
-1404,-1508,15720,137,71,-1136,268438473
-1500,-1560,15732,622,-621,-1604,268438473
-1188,-1432,15996,1160,-3213,-1735,268438473
-672,-1412,16280,1953,-4094,-1270,268438473
-652,-1404,16640,2082,-3715,-1170,268438473
-588,-1320,16792,639,-7195,-416,268438473
572,-832,17040,-564,-11593,995,268438473
344,-1604,17372,-827,-12697,471,268438473
776,-1116,17324,-1255,-15797,-894,268438473
1100,-1116,17632,-1132,-19651,-1943,268438473
2964,-988,17116,-2718,-26385,-2799,268438473
5716,-1572,16532,-3207,-27039,-3601,268438473
7576,-2372,15404,-811,-23765,-2695,268438473
8084,-2128,14440,1176,-23540,-1253,268438473
8704,-2164,14660,2154,-30916,204,268438473
10504,-1596,14800,604,-32768,1244,268438473
11236,-1596,14972,-1170,-32768,1644,268438473
11548,-1080,13224,-6210,-32768,2352,268438473
12828,-1424,10452,-10889,-32768,2542,268438473
13588,-1400,7076,-10593,-32768,483,268438473
14048,-2380,4072,-7937,-32768,-1840,268438473
14256,-1948,2156,-6035,-32768,-2435,268438473
14628,-1784,596,-4360,-32768,-2684,268438473
15300,-1760,-308,-2951,-32768,-3106,268438473
15096,-1996,-2752,-3145,-29072,-2402,268438473
15276,-1884,-4172,-3843,-32768,-1677,268438473
15408,-1488,-5296,-3828,-29327,-798,268438473
14488,-1328,-6984,-3675,-27627,371,268438473
13996,-1564,-8560,-3506,-26669,520,268438473
12936,-1624,-10076,-2695,-22796,994,268438473
11436,-1540,-11456,-3113,-20289,900,268438473
10624,-1416,-12248,-4052,-20104,-766,268438473
10536,-1376,-13100,-5281,-19686,-2611,268438473
10428,-1276,-14500,-5793,-18655,-2921,268438473
10168,-876,-15488,-5208,-17597,-2618,268438473
9308,-576,-16264,-4760,-18393,-2174,268438473
9000,-480,-16488,-2957,-15478,-1638,268438473
8944,32,-16972,-1744,-12632,-1342,268438473
8048,140,-17132,-2246,-12798,-795,268438473
7272,360,-17180,-2012,-13362,-806,268438473
6796,296,-17496,-1979,-14146,-1004,268438473
5576,24,-17132,-998,-13808,-492,268438473
4596,452,-17048,-43,-12503,-710,268438473
4088,636,-16552,-494,-12931,-1156,268438473
3660,684,-16376,-1699,-10341,-1443,268438473
3420,708,-16880,-3017,-8565,-845,268438473
2996,1048,-17932,-3070,-7211,-365,268438473
2592,1144,-18500,-2566,-4498,144,268438473
2120,1424,-18704,-1707,-2157,264,268438473
1944,1452,-18624,-809,-680,56,268438473
1812,1508,-18608,-18,2257,167,268438473
1728,1396,-18312,861,5158,160,268438473
2048,1204,-18376,1805,9671,-33,268438473
3060,1096,-18624,2556,11683,251,268438473
3428,1312,-18144,4627,13104,685,268438473
4184,1120,-17812,6407,16972,768,268438473
5004,620,-17152,6293,19147,782,268438473
6388,448,-16860,6356,21424,379,268438473
8508,-304,-15800,6803,24329,985,268438473
9156,-508,-14992,6745,26160,3183,268438473
9556,-1196,-13560,7233,30564,3665,268438473
9744,-1136,-13412,7080,32767,2729,268438473
11408,-1444,-11848,6452,27294,2046,268438473
13512,-2188,-9372,6374,24947,2840,268438473
13544,-2508,-8656,5784,28393,3437,268438473
13024,-2216,-8032,5711,28023,2500,268438473
14460,-3052,-6260,4958,22743,1497,268438473
15752,-3272,-4788,5200,20867,1783,268438473
16280,-3300,-3672,5329,26109,1496,268438473
16464,-4064,-2976,4945,32767,427,268438473
15776,-3820,-2260,4752,31820,-254,268438473
16824,-3512,-48,5363,23403,424,268438473
17748,-3016,1952,6479,21881,1971,268438473
16520,-2976,3924,6385,25830,3153,268438473
16168,-3352,5808,5108,31020,3958,268438473
15108,-3464,4332,4510,29551,3986,268438473
13316,-3672,6832,5352,29505,3013,268438473
11952,-3972,7612,6594,30399,2881,268438473
11340,-3388,9816,8064,28743,3472,268438473
9788,-2904,11612,8400,28714,2808,268438473
8464,-2636,12384,7207,27612,1270,268438473
7320,-3292,12632,6387,27611,661,268438473
6204,-2632,14336,7210,22303,1666,268438473
5164,-2512,16668,7319,16794,2699,268438473
4336,-1336,17076,5660,20166,2003,268438473
3412,-1060,15436,3855,21410,-817,268438473
2592,-1472,16628,5335,11695,-865,268438473
2328,-980,18600,5814,3729,303,268438473
2544,-756,18712,5532,7123,984,268438473
3216,304,17888,4203,13030,-251,268438473
2168,-428,17140,3790,16951,-837,268438473
448,20,20144,5712,6804,1042,268438473
900,204,19348,1628,5239,2503,268438473
-580,-104,17676,-2829,7609,2579,268438473
-752,-1272,15632,-3329,9658,1642,268438473
-448,-668,14444,-1676,8017,1098,268438473
-1316,-600,14728,819,7977,1814,268438473
-1924,-640,15060,2378,10959,2128,268438473
-2968,-592,15612,3278,14888,1571,268438473
-4032,-568,15848,3508,19441,1276,268438473
-4996,60,14840,3261,24482,113,268438473
-6068,432,14256,3834,24953,-565,268438473
-7404,376,14048,4542,24359,-263,268438473
-8200,908,13924,4128,25690,-54,268438473
-9952,1076,12288,2338,25253,-85,268438473
-10704,1608,12108,866,19778,-800,268438473
-11788,972,11312,2178,21162,-3165,268438473
-13156,1092,9784,3287,22755,-4939,268438473
-13492,1204,8912,5101,22319,-6334,268438473
-13640,940,7448,7170,24319,-7464,268438473
-13300,772,7220,8044,22616,-6962,268438473
-13460,292,6452,7283,22954,-5419,268438473
-14344,372,5572,5353,23804,-4084,268438473
-15032,352,3476,2994,23674,-3471,268438473
-15300,792,3524,1668,18975,-2609,268438473
-15688,100,836,2192,20800,-2650,268438473
-15692,304,-892,2794,21748,-3400,268438473
-16028,-476,-2196,3356,22504,-4722,268438473
-15508,-128,-3144,2268,18312,-4660,268438473
-14880,-848,-3480,1897,15153,-3758,268438473
-14616,-1292,-4184,2122,17063,-3880,268438473
-14232,-1484,-4304,1023,16891,-3287,268438473
-15540,-2808,-6960,2263,20487,-3851,268438473
-13416,-1664,-6860,1648,21708,-2416,268438473
-12808,-2468,-7772,-1675,18232,-826,268438473
-12520,-2236,-8584,-4800,16452,4,268438473
-12204,-1616,-9156,-4827,16953,823,268438473
-12164,-1796,-10704,-4203,16474,1545,268438473
-11580,-1540,-11496,-3870,15786,1706,268438473
-10640,-1128,-12856,-2967,15971,1530,268438473
-10740,-772,-14696,-1821,15828,1609,268438473
-10600,-72,-15036,-98,12343,1431,268438473
-10800,-232,-15688,1437,12355,79,268438473
-9540,-244,-15520,2199,9969,-1513,268438473
-7868,-844,-14112,2019,11727,-3065,268438473
-8740,-24,-15884,2348,14322,-3152,268438473
-3504,-316,-15616,-23,19489,-2549,268438473
-7468,-1780,-16228,-3078,6194,465,268438473
-6952,-2320,-16572,530,6384,-753,268438473
-6008,-1668,-15460,2402,2154,-1194,268438473
-5636,-864,-14996,1264,3546,-1033,268438473
-5656,-1280,-16720,-802,7778,-530,268438473
-5236,-1028,-17556,-653,9180,-1202,268438473
-4956,-1172,-17720,-749,7867,-1676,268438473
-4464,-1576,-18128,-404,7218,-1517,268438473
-3956,-1308,-16988,728,6309,-1507,268438473
-3944,-1760,-17144,505,8149,-2187,268438473
-3012,-2008,-17524,-289,7772,-3310,268438473
-2764,-1168,-17928,1489,10603,-4277,268438473
-2256,-1600,-18404,2440,11800,-3886,268438473
-1340,-2104,-17976,2836,10337,-3783,268438473
-908,-2064,-17704,2839,8012,-3859,268438473
-160,-2432,-17844,2124,7174,-4045,268438473
760,-2736,-17380,676,3909,-3649,268438473
1272,-2748,-18028,331,3406,-2406,268438473
1752,-2936,-17504,265,1025,-1000,268438473
1372,-2840,-17672,68,-1471,740,268438473
512,-2492,-17064,-181,-2773,1668,268438473
76,-2232,-16940,-244,-2801,2380,268438473
-840,-2260,-17176,-252,-1968,2383,268438473
-1284,-2008,-16908,-497,-2463,1823,268438473
-1160,-1968,-17672,-1174,-1378,687,268438473
-920,-2092,-18184,-943,-510,93,268438473
-780,-2236,-18464,-342,-387,-399,268438473
-536,-2260,-18368,-105,-1270,-504,268438473
-116,-2716,-18192,136,-1905,-408,268438473
-124,-2672,-17752,315,-3331,-133,268438473
-812,-2092,-17108,-60,-6955,429,268438473
-1220,-2456,-17476,46,-7420,81,268438473
-1216,-2780,-18184,54,-8366,1,268438473
-1380,-2640,-18136,341,-12441,669,268438473
-2524,-2064,-17828,1561,-13311,2101,268438473
-3816,-2024,-17372,1190,-12362,2669,268438473
-4852,-2568,-17272,256,-16390,2458,268438473
-5408,-2992,-16580,1470,-20106,2046,268438473
-6532,-2244,-14840,3072,-20233,2337,268438473
-7796,-2164,-14568,1440,-20753,2875,268438473
-9124,-2456,-13848,-327,-26110,2749,268438473
-10156,-2708,-13176,-200,-30366,1550,268438473
-10352,-2756,-13356,532,-26111,822,268438473
-11420,-2348,-12200,941,-26034,2227,268438473
-12592,-2284,-10956,-554,-30002,3425,268438473
-12828,-1980,-8128,-2454,-32768,2986,268438473
-13528,-1784,-6224,-2688,-32768,2468,268438473
-14984,-1064,-4768,-2273,-32768,2814,268438473
-15932,-1316,-4172,-3573,-32768,2576,268438473
-15552,-864,-1648,-3924,-32768,483,268438473
-15096,-704,488,-1426,-32768,-1351,268438473
-14488,-536,3340,-18,-32768,-1959,268438473
-13892,-1056,5468,-2971,-32768,-2349,268438473
-12712,-1680,8280,-4311,-32768,-2466,268438473
-15168,-992,9048,3111,-16265,737,268438473
-12428,-2336,10556,1019,-16252,-1481,268438473
-12184,-1676,10484,-3420,-27106,-2309,268438473
-9144,-2608,11880,-4854,-32752,-2598,268438473
-7056,-3372,12308,-1018,-25494,-3523,268438473
-6724,-2924,13068,3269,-13990,-4414,268438473
-7032,-2504,13780,2673,-10870,-4448,268438473
-5624,-2680,13900,-40,-13597,-4161,268438473
-3856,-2928,14292,-1802,-14351,-4156,268438473
-4064,-4104,14084,-1217,-12026,-3507,268438473
-3716,-2668,14160,-239,-13979,-642,268438473
-2964,-2512,15492,945,-14943,1554,268438473
-3080,-2356,16468,984,-12114,1572,268438473
-2744,-2476,16556,-714,-11383,662,268438473
-2156,-2600,16452,-2545,-11878,-239,268438473
-1176,-2872,15800,-3476,-12443,-1299,268438473
20,-3728,15304,-2555,-11273,-1932,268438473
556,-3796,15388,-322,-6515,-1755,268438473
792,-3592,15432,745,-4641,-963,268438473
1112,-3584,15416,-105,-6851,-42,268438473
1572,-3764,15680,-983,-7611,447,268438473
2000,-3756,15768,-891,-5849,267,268438473
2272,-3276,15288,-368,-4174,-37,268438473
2252,-3308,15356,1962,3175,-1671,268438473
1936,-2708,15372,148,-603,-1322,268438473
1528,-2664,15236,-1682,-7751,-1104,268438473
2804,-3400,15996,-759,-9179,-1173,268438473
2564,-3000,15860,1038,-9746,-1376,268438473
3300,-3264,16244,557,-12981,-1110,268438473
4856,-3380,16092,1100,-9442,-620,268438473
5340,-3052,16064,2367,-9100,-632,268438473
5704,-2504,15696,1981,-7926,-97,268438473
5680,-3292,16224,-376,-10762,-365,268438473
6144,-3448,16264,-1693,-15069,170,268438473
7276,-3504,15868,-2250,-16501,-68,268438473
8704,-3720,15220,-3609,-15925,672,268438473
8284,-3740,14040,-6334,-24968,1926,268438473
10028,-3608,13636,-3513,-21565,-1121,268438473
10808,-4408,12620,1314,-16830,-3246,268438473
11672,-4324,12580,1956,-18228,-2451,268438473
12616,-3756,11712,-492,-17872,-1644,268438473
12636,-3968,10056,-2695,-20900,-1572,268438473
14012,-4260,9652,-4652,-27828,-1362,268438473
14412,-3404,8904,-5910,-25792,-1674,268438473
14876,-2824,7268,-6635,-23857,-1552,268438473
14924,-3148,4220,-8656,-25786,-1323,268438473
15872,-3748,3320,-7814,-27912,-2301,268438473
15004,-2824,2404,-5762,-25712,-2316,268438473
15196,-2948,1348,-5383,-23809,-2980,268438473
17664,-3576,-1128,-6577,-28211,-1395,268438473
15544,-2628,-2504,-8139,-32768,-2071,268438473
16600,-2128,-3412,-7556,-32768,-201,268438473
15076,-2532,-5432,-6391,-29274,-140,268438473
14216,-2780,-7908,-6017,-26262,143,268438473
12532,-2496,-9352,-7152,-28675,1400,268438473
12440,-2172,-10032,-4874,-23318,-2370,268438473
10996,-2692,-11208,-2519,-20001,-5678,268438473
13028,-2276,-12080,-4059,-22326,-4937,268438473
12732,-2120,-13164,-3997,-20630,-2710,268438473
11504,-1612,-14352,-2599,-17064,-339,268438473
10164,-1248,-15288,-1611,-17445,338,268438473
7872,-1456,-15056,-164,-17297,707,268438473
8756,-1716,-14808,-226,-14679,-785,268438473
8376,-1432,-15304,-1253,-13242,-444,268438473
7520,-1220,-15896,-2176,-12313,-535,268438473
7024,-1084,-17416,-2169,-12189,-1072,268438473
5968,-968,-17776,-1460,-13960,-1384,268438473
5772,-1052,-16996,-630,-12412,-727,268438473
4680,-1396,-16212,-1671,-14439,501,268438473
3848,-464,-16268,-2586,-14000,326,268438473
2752,-304,-16936,-2891,-11795,-508,268438473
1612,72,-17184,-3418,-19684,-2618,268438473
1168,-304,-16244,-2235,-10037,-323,268438473
1600,-764,-18140,-3418,-8166,-22,268438473
352,-252,-18580,-3037,-5145,-206,268438473
84,232,-18744,-2376,-5727,-478,268438473
60,308,-18364,-1525,-4749,-939,268438473
188,272,-18312,-844,-1370,-1026,268438473
28,212,-18776,-565,1394,-806,268438473
-84,432,-18556,391,5337,-682,268438473
136,464,-19032,651,5733,-799,268438473
868,84,-18408,2074,9695,-683,268438473
1024,-60,-18372,2865,15466,-105,268438473
1560,720,-17784,3510,16456,-230,268438473
2872,300,-17268,5038,19202,-900,268438473
4040,-124,-17304,4968,21328,-1170,268438473
5776,-728,-16284,4728,19925,-572,268438473
6380,-1080,-14804,5513,28018,213,268438473
6728,-256,-16332,3983,32767,-269,268438473
9840,-168,-14820,1278,15538,5,268438473
11980,-1212,-12932,4758,20423,1741,268438473
11784,-1716,-12512,8574,32767,3621,268438473
10228,-1584,-12452,8526,32767,1899,268438473
12024,-2384,-10776,6051,21462,-1022,268438473
16436,-2980,-7860,6336,17539,-457,268438473
15932,-2672,-7536,7871,30647,1971,268438473
14580,-3588,-5996,7027,32767,2995,268438473
13008,-3300,-5056,6817,32767,936,268438473
14792,-3748,-2096,7570,32767,-1976,268438473
17220,-3840,1016,7531,32767,-1962,268438473
15900,-4440,-2476,7745,32767,408,268438473
15348,-3812,3828,6180,32767,143,268438473
14376,-2944,5448,5085,32767,189,268438473
14140,-2520,7760,6789,32767,-202,268438473
13276,-2876,10308,8234,32767,46,268438473
11856,-1968,12108,5355,32767,691,268438473
10056,-2248,13048,3732,31789,538,268438473
8396,-2280,14232,2958,27392,883,268438473
7432,-2056,14952,2698,26672,1138,268438473
6116,-2008,15264,2527,25354,1031,268438473
5012,-1956,15692,2399,21007,1183,268438473
4540,-1360,16148,2923,17242,1886,268438473
3372,-1644,16824,2762,15299,2477,268438473
2468,-1556,16388,2262,16799,1936,268438473
1016,-1468,15816,2139,16585,636,268438473
212,-1744,15832,2650,14640,74,268438473
-584,-1192,16456,3416,12662,393,268438473
-1404,-24,16908,3870,14706,-580,268438473
-2448,372,17596,4343,16486,-1910,268438473
-1444,-1688,16704,5699,23590,-2720,268438473
-4240,-280,16456,1865,17246,-1082,268438473
-4340,68,15524,519,10744,127,268438473
-4648,152,15424,509,7468,1401,268438473
-5076,-428,15364,1370,9411,1314,268438473
-5784,-224,15032,1364,9777,1707,268438473
-6444,420,15964,2545,9104,1747,268438473
-6740,508,15496,1770,8693,1496,268438473
-7068,176,14576,-287,10620,598,268438473
-7840,168,13904,-544,8565,661,268438473
-8144,344,13548,117,8032,976,268438473
-8424,180,12768,740,9864,648,268438473
-8964,284,12668,1294,11482,408,268438473
-9416,664,12500,1133,14922,-271,268438473
-10112,688,11788,623,15025,-603,268438473
-10904,924,11396,867,15351,-749,268438473
-11380,972,11204,1233,18719,-1205,268438473
-12112,476,10224,928,21919,-1932,268438473
-12868,500,9196,284,21103,-2192,268438473
-13632,352,8000,-26,19115,-2268,268438473
-13880,80,6928,236,17638,-2626,268438473
-14224,116,6304,1214,17517,-2429,268438473
-14936,80,5300,2343,20493,-2786,268438473
-14824,116,3920,3504,22867,-3692,268438473
-14872,-256,2964,4340,22352,-3562,268438473
-14844,-312,2480,3757,21368,-2115,268438473
-15104,-696,1068,1544,21063,-920,268438473
-15604,-68,-144,-263,20306,-350,268438473
-15948,-304,-1684,117,22134,-699,268438473
-15680,-292,-2488,891,24007,-1781,268438473
-15628,-172,-4256,223,24080,-1986,268438473
-15192,-492,-5496,-859,22716,-2320,268438473
-14592,-844,-7128,-1701,21695,-2136,268438473
-13840,-756,-7312,-2465,20043,-1758,268438473
-13016,-880,-9172,-3222,22384,-2084,268438473
-12148,-1024,-10604,-3680,22417,-2244,268438473
-11164,-680,-11324,-2813,20326,-2278,268438473
-10940,-1280,-12124,-2875,18585,-2045,268438473
-10396,968,-14936,-2989,17806,-1925,268438473
-9960,20,-13588,-2483,20597,-2041,268438473
-15372,3224,-13672,-1409,17713,-4435,268438473
-7364,-460,-15916,-3465,21311,-3461,268438473
-7060,-1192,-16520,-2241,18239,-3004,268438473
-6036,-872,-17444,903,15895,-2535,268438473
-4360,-840,-15600,1629,13196,-1888,268438473
-5236,-896,-17796,1025,11473,-1125,268438473
-5072,-1372,-17848,2261,10668,-1071,268438473
-4748,-1528,-17476,2637,7530,-699,268438473
-4120,-1548,-16936,2140,5913,-1191,268438473
-3772,-1788,-17256,2107,5199,-750,268438473
-3616,-2008,-17324,1777,3352,-336,268438473
-3332,-2028,-17008,530,-346,-102,268438473
-3456,-2208,-17264,82,-113,255,268438473
-3328,-1972,-17108,-330,-993,173,268438473
-3488,-2472,-17344,-410,-2845,119,268438473
-3244,-2328,-17660,-563,-5172,920,268438473
-4192,-1820,-17112,-64,-7719,2129,268438473
-4572,-1372,-17028,135,-8115,2165,268438473
-5048,-1840,-17096,-1214,-12303,2264,268438473
-5956,-1656,-17420,-1837,-16945,2770,268438473
-7264,-1072,-16380,-305,-17851,3606,268438473
-8164,-1004,-15072,1206,-14047,3980,268438473
-8872,-1908,-15696,-301,-16338,3778,268438473
-8556,-1604,-15104,-1205,-24805,4727,268438473
-10644,-76,-13228,1523,-23115,4788,268438473
-11664,92,-12784,2276,-12321,3463,268438473
-11896,-556,-13028,-1218,-18578,2312,268438473
-12636,-696,-12376,-3338,-28787,1834,268438473
-13292,-436,-10660,-1090,-28045,1438,268438473
-12056,-176,-9352,-75,-24815,1354,268438473
-11508,-912,-8544,-884,-29280,3111,268438473
-13580,-388,-6656,206,-32768,5793,268438473
-14908,388,-4444,1442,-26403,6360,268438473
-15360,748,-4184,1529,-21228,4320,268438473
-15192,988,-3308,42,-27414,3111,268438473
-14292,1124,-1084,-548,-32768,2956,268438473
-14944,1600,1380,1787,-32768,3880,268438473
-14996,1332,2528,3157,-28334,4680,268438473
-17136,1092,6732,3500,-27628,5327,268438473
-16984,2160,6052,1619,-21978,3334,268438473
-15752,2336,8872,-3052,-25654,309,268438473
-13716,1896,9256,-6279,-24290,-1588,268438473
-12148,1016,9660,-7507,-21087,-1488,268438473
-10500,584,9808,-8461,-24083,-985,268438473
-8864,-136,10620,-7549,-27749,-535,268438473
-8736,-164,11492,-5769,-27115,732,268438473
-7960,-24,12936,-5842,-27514,837,268438473
-6828,220,13416,-5219,-23706,-315,268438473
-6300,-100,14656,-2384,-17885,-1173,268438473
-5488,-228,14572,-2669,-15847,-2514,268438473
-3988,-292,14640,-3520,-17204,-3439,268438473
-3568,-440,15224,-1670,-15321,-2907,268438473
-2916,-540,15716,266,-11130,-3177,268438473
-2028,-544,16032,-455,-11302,-3365,268438473
-1552,-640,15396,-810,-11760,-1864,268438473
-1184,-780,15588,817,-8781,-1339,268438473
-1112,-1064,15692,1561,-8183,-1248,268438473
-604,-1044,15100,748,-9665,-1019,268438473
-556,-524,15524,2425,-6915,-1188,268438473
-556,-688,15472,3453,-4925,-1681,268438473
-296,-748,15628,2734,-5970,-2281,268438473
568,-464,15620,2524,-9221,-1885,268438473
1300,144,15636,3489,-7790,-2027,268438473