ax, ay, az, gx, gy, gz, temp
-196,752,16332,-56,-186,8,268438473
-224,800,16212,-39,-197,-20,268438473
-168,780,16184,-44,-195,-38,268438473
-268,668,16212,-52,-200,-30,268438473
-184,840,16124,-31,-189,-37,268438473
-256,804,16112,-36,-165,-2,268438473
-276,740,16120,-52,-176,-6,268438473
-164,768,16112,-49,-177,2,268438473
-208,784,16204,-30,-204,-25,268438473
-220,780,16216,-47,-183,6,268438473
-248,792,16228,-2,-197,1,268438473
-396,844,16248,-31,-184,9,268438473
-212,744,16216,-17,-185,-43,268438473
-256,652,16104,-44,-182,-3,268438473
-212,820,16216,-19,-188,7,268438473
-232,724,16024,-43,-187,-28,268438473
-296,724,16112,-35,-196,-19,268438473
-240,836,16264,-31,-201,-10,268438473
-300,688,16372,-29,-183,-9,268438473
-324,748,16152,-32,-166,-24,268438473
-264,764,16120,-30,-148,-3,268438473
-236,720,16188,-56,-151,8,268438473
-220,760,16236,-42,-173,-22,268438473
-220,676,16004,-36,-182,-1,268438473
-108,860,16008,-20,-192,9,268438473
-296,804,16128,-40,-198,2,268438473
-240,768,16160,-40,-176,-20,268438473
-288,804,16128,-58,-176,2,268438473
-188,772,15984,-45,-176,-20,268438473
-300,844,16052,-40,-163,2,268438473
-256,768,16268,-46,-197,-3,268438473
-204,720,16100,-5,-172,-39,268438473
-188,708,16076,-23,-220,-4,268438473
-316,792,15996,-31,-196,8,268438473
-204,752,16196,-18,-200,-9,268438473
-252,752,16328,-37,-185,-31,268438473
-292,796,16184,-51,-153,-33,268438473
-268,804,16320,-15,-182,-14,268438473
-240,772,16208,-45,-187,-25,268438473
-308,792,16252,-30,-202,-6,268438473
-236,716,16024,-27,-176,-15,268438473
-288,884,16100,-52,-186,-30,268438473
-168,788,16264,-47,-181,-4,268438473
-172,712,16092,-48,-189,-24,268438473
-220,688,16160,-48,-183,4,268438473
-248,780,16168,-47,-199,-13,268438473
-256,836,16148,-20,-179,-26,268438473
-172,836,16300,-32,-176,-42,268438473
-268,752,16136,-32,-193,12,268438473
-328,732,16080,-40,-165,-19,268438473
-168,796,16204,-22,-190,5,268438473
-256,872,16080,-27,-198,-26,268438473
-288,816,16280,-33,-187,-24,268438473
-120,784,16148,-50,-199,-1,268438473
-220,724,16232,-56,-188,-1,268438473
-344,760,16148,-40,-171,14,268438473
-236,772,16096,-39,-178,-28,268438473
-280,708,16192,-24,-189,-31,268438473
-160,764,16080,-21,-172,-25,268438473
-280,708,16136,-65,-188,-8,268438473
-184,712,16228,-15,-179,3,268438473
-268,696,16020,-52,-191,-19,268438473
-188,708,16168,-41,-168,-5,268438473
-212,764,16092,-9,-157,13,268438473
-180,752,16224,-28,-156,-25,268438473
-244,832,16184,-26,-183,-11,268438473
-228,776,16288,-61,-178,-16,268438473
-276,760,16088,-27,-179,-10,268438473
-244,876,16068,-21,-179,-5,268438473
-308,748,16196,-41,-170,-23,268438473
-188,756,16220,-34,-181,29,268438473
-232,772,16164,-51,-182,-17,268438473
-256,836,16112,-34,-183,-22,268438473
-232,676,16088,-26,-196,-17,268438473
-144,844,15948,-38,-179,-34,268438473
-204,812,16184,-45,-183,5,268438473
-228,756,16132,-43,-175,-30,268438473
-188,740,16176,-36,-185,10,268438473
-244,780,16184,-24,-191,-10,268438473
-268,760,16212,-38,-185,-30,268438473
-256,816,16172,-21,-204,-25,268438473
-148,740,16188,-6,-197,-16,268438473
-216,704,16216,-52,-175,-19,268438473
-196,664,16140,-61,-176,-19,268438473
-300,816,16252,-47,-193,11,268438473
-236,700,16256,-42,-176,-10,268438473
-272,764,16212,-33,-199,-13,268438473
-232,808,16288,-35,-187,-32,268438473
-204,800,16208,-27,-154,-5,268438473
-252,848,16132,-23,-173,-7,268438473
-248,784,16144,-33,-182,-16,268438473
-152,772,16204,-21,-208,-28,268438473
-260,760,16180,-30,-159,-25,268438473
-228,744,16120,-9,-183,5,268438473
-236,756,16176,-34,-178,0,268438473
-280,792,16064,-65,-179,-12,268438473
-240,684,16092,-54,-192,-5,268438473
-256,804,16116,-49,-183,-15,268438473
-264,844,16376,-15,-166,-31,268438473
-204,884,18764,128,227,10,268438473
-240,968,15384,1,-456,-28,268438473
-400,844,15836,-33,-606,26,268438473
-104,740,14640,-78,-161,-14,268438473
-228,1020,16144,-52,-146,-18,268438473
-92,800,17212,-12,-178,-32,268438473
-60,788,15760,-19,-284,-2,268438473
-332,840,15940,-35,-171,-28,268438473
-240,720,15784,-70,-151,-10,268438473
-284,756,16672,-26,-155,-23,268438473
-300,640,16080,-26,-177,-15,268438473
-268,768,15984,-47,-141,2,268438473
-264,788,16160,-34,-156,-21,268438473
-212,784,16288,-40,-203,-26,268438473
-276,744,16536,-41,-209,-40,268438473
-308,596,15740,-16,-201,-34,268438473
-232,744,16136,-47,-152,-30,268438473
-236,804,16092,-35,-190,-50,268438473
-256,756,16380,-6,-232,-7,268438473
-356,832,15788,-56,-178,-9,268438473
-188,772,16072,-32,-142,-10,268438473
-276,676,16336,-56,-185,-14,268438473
-208,684,16172,-52,-182,-17,268438473
-296,752,16292,-40,-188,-10,268438473
-264,680,15932,-41,-179,-15,268438473
-256,836,16420,-57,-164,7,268438473
-184,672,16152,-32,-194,-14,268438473
-216,744,16256,-33,-189,12,268438473
-180,780,16052,-37,-197,-22,268438473
-292,760,16352,-50,-155,-27,268438473
-316,656,16232,-73,-168,-18,268438473
-288,708,16244,-57,-186,-16,268438473
-252,756,16208,-60,-176,-15,268438473
-212,816,16184,-36,-190,-25,268438473
-276,740,16300,-25,-191,2,268438473
-88,708,16052,-56,-185,-31,268438473
-296,764,16080,-72,-185,-25,268438473
-244,712,15988,-10,-195,-16,268438473
-200,688,16376,-20,-188,-30,268438473
-184,720,16200,-40,-204,-6,268438473
-244,740,16072,-14,-145,-14,268438473
-224,840,16184,-33,-204,-9,268438473
-312,816,16044,-29,-198,6,268438473
-280,752,16136,-42,-180,11,268438473
-244,708,16140,-43,-225,-19,268438473
-152,844,16036,-26,-173,-24,268438473
-224,748,16212,-28,-174,-15,268438473
-240,744,16064,-43,-175,9,268438473
-144,740,16144,-29,-187,-15,268438473
-284,788,16136,-49,-186,-17,268438473
-256,732,16280,-33,-176,-8,268438473
-272,788,15956,-58,-189,-11,268438473
-148,740,16136,-48,-238,4,268438473
-176,828,16052,-24,-181,-14,268438473
-196,632,16264,-47,-178,-29,268438473
-236,708,16112,-54,-206,-37,268438473
-232,792,16136,-61,-168,-5,268438473
-264,704,16220,-56,-185,-33,268438473
-232,788,16036,-26,-172,-21,268438473
-280,740,16224,-53,-194,-4,268438473
-224,772,16116,-37,-196,10,268438473
-208,844,16228,-37,-213,-26,268438473
-312,816,16196,-43,-199,-42,268438473
-204,896,16276,-50,-215,-1,268438473
-252,784,16104,-42,-166,-19,268438473
-144,732,16280,-29,-207,-33,268438473
-216,824,16000,-17,-179,-5,268438473
-276,764,16220,-17,-206,-9,268438473
-168,840,16232,-60,-171,-9,268438473
-196,760,16104,-29,-194,3,268438473
-5468,-272,16696,919,-5106,19119,268438473
1736,896,12996,-1615,8487,26245,268438473
4496,1960,20692,-2814,1542,27971,268438473
6428,-172,16072,-768,486,16786,268438473
3408,1416,16272,-374,577,4262,268438473
-344,756,16120,3,-198,-7,268438473
-212,788,16140,-12,-250,-16,268438473
-284,748,16324,-45,-166,-14,268438473
-240,748,16208,-25,-181,-1,268438473
-260,732,16040,-27,-165,-11,268438473
-272,740,16012,-17,-163,-14,268438473
-212,768,16156,-43,-166,-19,268438473
-320,772,16172,-51,-186,5,268438473
-308,724,15992,-34,-134,-3,268438473
-252,812,16128,-46,-199,-15,268438473
9152,8232,17420,2092,50,-32768,268438473
-6752,-1404,14412,3131,-5523,-32768,268438473
-7288,-2308,16272,979,243,-23726,268438473
-6924,-1660,15876,30,86,-3831,268438473
-696,640,16100,-66,-834,4412,268438473
-856,564,16040,-414,429,5096,268438473
-180,720,16124,-398,311,6327,268438473
-252,608,16184,-324,220,5294,268438473
-240,772,16056,-173,-59,3185,268438473
-8,768,16272,-74,-245,945,268438473
-328,744,16044,-44,-201,102,268438473
-304,736,16208,-50,-178,60,268438473
-356,720,16032,-68,-167,31,268438473
-220,680,16208,-57,-198,60,268438473
-288,720,16148,-30,-192,33,268438473
96,780,15788,-102,139,-36,268438473
-6760,-2968,11652,-669,-1991,1043,268438473
-5436,-8560,16412,-1110,5687,12396,268438473
-5948,-3304,17156,-2054,-833,24745,268438473
-5436,4888,16384,-1124,-3255,32767,268438473
7548,6476,16872,-3143,5969,32767,268438473
8488,2584,16488,-1320,683,24215,268438473
7380,1212,16360,12,-574,3168,268438473
-820,496,15940,-163,643,-1128,268438473
-200,808,16104,-69,83,-92,268438473
-92,724,16220,-63,-104,-45,268438473
-232,700,16224,-14,-180,-21,268438473
-196,788,16280,-24,-206,-15,268438473
-140,732,16064,-57,-155,-16,268438473
-176,752,16248,-22,-159,-7,268438473
-212,756,16216,-37,-169,-20,268438473
-236,852,16148,-24,-167,-25,268438473
-236,780,16008,-47,-206,-26,268438473
-240,716,16152,-43,-152,-4,268438473
-268,736,16284,-32,-172,-9,268438473
-236,864,16140,-35,-189,-20,268438473
-172,804,16108,-74,-71,-25,268438473
-1656,-1920,15824,-362,5594,1614,268438473
3372,1868,15240,-358,357,-126,268438473
1024,960,15812,173,205,-3897,268438473
-4580,2260,15748,224,-2110,1674,268438473
1388,1800,20264,1752,10095,796,268438473
224,1452,18256,5882,19136,-3661,268438473
-1800,640,18968,7551,12850,-4541,268438473
-1988,2880,15080,11182,4243,-3026,268438473
-2272,1640,12420,9150,-1909,-2109,268438473
8428,184,12064,101,9809,-9369,268438473
-348,2924,9740,-7594,19499,-15631,268438473
-2488,-32,644,-17735,-4875,-16336,268438473
832,-508,7108,-10326,-32768,4071,268438473
2236,1396,4776,-13960,9525,-312,268438473
756,-720,7036,4021,-27568,5835,268438473
6196,-1744,17132,-4061,14151,-1269,268438473
1540,124,17392,601,-8405,710,268438473
-1392,604,15448,-22,-1402,50,268438473
-560,768,16060,-59,-193,-36,268438473
-340,724,16132,-7,-216,-9,268438473
-428,688,16144,-29,-209,-37,268438473
-252,648,15996,-58,-189,11,268438473
-364,764,16112,-14,-170,6,268438473
4460,1460,16684,206,444,-3252,268438473
-3644,-620,17868,902,-313,1663,268438473
-2160,408,21060,15010,-2127,8858,268438473
1916,3792,20192,14139,-7886,4294,268438473
2072,3728,14244,13553,-10095,2591,268438473
5072,1552,5648,5623,1193,1272,268438473
1552,184,-968,-12600,32767,-5749,268438473
84,-200,-564,-22551,32767,-12021,268438473
32767,-20832,32767,10711,-32768,13397,268438473
-7348,4272,13220,-13083,-222,2748,268438473
4552,-856,6092,8776,-13711,3701,268438473
-9412,684,24296,-783,9326,-335,268438473
2556,976,16724,1361,-4399,-120,268438473
-960,640,15856,185,-1415,-975,268438473
772,1092,15524,54,379,-3132,268438473
2620,1388,16408,568,254,-9313,268438473
-8688,1624,17084,880,2748,-13180,268438473
-1552,-492,20244,5553,7644,369,268438473
120,2004,18664,11828,1907,5391,268438473
6416,3320,16324,12258,11572,-1459,268438473
-700,3744,7580,939,32767,-7160,268438473
-2332,1732,444,-11140,12171,-8494,268438473
-4584,944,2472,-22442,-23365,-8371,268438473
32767,6688,3780,9354,32767,624,268438473
608,528,-676,-11845,11277,4451,268438473
9476,1640,21472,7170,-1792,2586,268438473
-4348,-316,14072,483,3848,-57,268438473
2288,1796,15448,-817,1829,-109,268438473
964,956,16604,246,-958,32,268438473
60,812,16304,60,-598,20,268438473
-168,840,16448,-37,-264,-3,268438473
-316,872,16188,-51,-232,-2,268438473
-236,768,16256,-37,-207,3,268438473
-136,800,16160,-42,-183,-27,268438473
-196,740,16184,-44,-178,-14,268438473
-196,664,16184,-32,-174,-26,268438473
-236,824,16120,-46,-186,-10,268438473
-1448,456,15688,169,-1266,80,268438473
-5868,1364,15948,211,-1976,4020,268438473
-2800,684,16004,-256,-1089,13884,268438473
1632,584,16244,-477,703,8839,268438473
492,320,16476,-60,-1266,8206,268438473
-4440,2752,15636,-106,-576,12392,268438473
-2212,1208,15736,-1174,2480,14568,268438473
-4736,156,16836,-1166,1954,13893,268438473
-1504,208,16252,-696,746,13373,268438473
700,468,16384,-471,265,10333,268438473
2688,620,16388,-874,1957,9435,268438473
5220,-160,16020,-490,1446,5012,268438473
3400,-56,15964,-145,4,1479,268438473
1044,-4,16456,-172,-63,2774,268438473
128,360,16060,58,-1378,1959,268438473
-732,756,16168,-189,1410,-1923,268438473
224,736,16220,-37,-219,-307,268438473
-264,804,16148,-17,-314,-34,268438473
-236,784,16048,-65,-208,-22,268438473
-14536,-8464,17500,1286,-8230,11484,268438473
-4352,4872,24208,1847,-7871,11588,268438473
7464,3268,24836,9464,-16901,4371,268438473
2416,2796,17448,11519,-11686,-942,268438473
3400,2652,17644,-283,-5798,-3440,268438473
3568,1800,18056,-17796,1230,-5619,268438473
3696,-260,11884,-31551,12409,-5161,268438473
4300,-3536,5968,-29024,10137,-662,268438473
4120,-4140,3220,-9512,289,8640,268438473
2496,-1876,5812,13374,2718,13762,268438473
-3508,1348,11324,28965,2614,10604,268438473
-7156,3948,23712,27841,-5192,3549,268438473
-3360,4468,31692,10197,-2835,-2161,268438473
2896,4568,26336,-9609,5823,-8815,268438473
1276,1060,19964,-20832,12009,-11116,268438473
1480,-2620,11404,-21065,2204,-7614,268438473
3868,-4692,5476,-9745,-7901,4373,268438473
2092,-3292,4288,5232,-11010,11524,268438473
200,280,9108,18752,-8969,11155,268438473
708,5340,24464,22274,-1405,4993,268438473
-3448,3608,26588,3858,1723,-414,268438473
-220,3744,23504,-7578,5199,-5013,268438473
-752,1084,18804,-14906,7975,-10820,268438473
2860,-1808,11332,-18848,6736,-12818,268438473
5412,-5644,5532,-10756,-6209,-2036,268438473
5280,-2912,5024,6914,-9822,9390,268438473
-1280,468,15744,22741,-9742,12704,268438473
-896,3136,23348,22333,-340,7481,268438473
-4036,4924,27336,620,3384,-1503,268438473
388,3296,22164,-12957,8039,-9264,268438473
800,1428,16196,-18050,10973,-13706,268438473
3988,-2376,10632,-17099,2738,-10824,268438473
6076,-5588,6132,-5908,-9830,2111,268438473
3068,-2144,9892,13242,-9067,13160,268438473
-3060,3272,15608,22249,-247,10499,268438473
-3524,3124,24616,12251,3698,2074,268438473
-2732,2568,24916,-7500,6368,-9117,268438473
1140,776,19104,-17033,8032,-14739,268438473
4388,-2996,12936,-16549,-2308,-8732,268438473
5744,-3872,8836,-3842,-5970,4372,268438473
2336,-2024,9112,8890,-5485,10901,268438473
-224,-76,11052,13795,-6070,9401,268438473
820,1092,13480,12655,-3132,4384,268438473
-472,4120,21260,15213,-2839,2649,268438473
-388,1780,18492,4456,-1147,-1504,268438473
2604,-2308,14024,-3427,-6523,-1348,268438473
1976,3756,15652,-4145,-12153,2922,268438473
4012,-1676,18240,-3041,11389,-921,268438473
1068,228,14620,-322,13028,-3111,268438473
572,-60,15220,-67,17699,-3047,268438473
-1660,1260,11652,-3989,1046,-1243,268438473
388,348,15516,73,2766,-349,268438473
540,732,16968,767,280,-93,268438473
-84,704,16136,-211,-549,27,268438473
-280,664,16376,189,-50,-19,268438473
-292,648,16268,-136,-362,-4,268438473
-356,628,16116,13,-132,-10,268438473
-364,704,16252,-13,-96,-38,268438473
-292,584,16124,-23,-165,-31,268438473
-292,744,16344,42,-158,-7,268438473
-364,636,16260,-51,-368,22,268438473
-7604,592,23928,2554,-5939,3580,268438473
-96,-404,17720,9103,5977,3483,268438473
2832,2116,19532,11808,5599,997,268438473
612,2352,19768,13953,17509,-971,268438473
-1004,2680,15512,13806,20574,-1846,268438473
-2944,3368,13052,12777,19964,-1323,268438473
-4016,3776,11220,9990,17948,-801,268438473
-4828,4344,10608,6540,13480,-7,268438473
-5336,4600,10168,2921,6972,701,268438473
-5908,5228,10632,334,-438,589,268438473
-5616,5120,10068,-3160,-4681,504,268438473
-4400,3932,9236,-7115,-16980,1685,268438473
-2448,3368,8692,-14020,-30148,3417,268438473
460,2780,10700,-18815,-32768,2709,268438473
2224,496,13700,-19669,-32768,703,268438473
3468,8,23044,-24871,-2654,-4501,268438473
-17816,13172,27280,1017,1604,-3618,268438473
5652,2092,11136,2664,-21653,999,268438473
-3488,3332,13620,3731,-1174,-2362,268438473
1172,376,16000,-334,3091,693,268438473
-628,1000,16804,355,-1043,-170,268438473
-732,528,15840,-74,142,3,268438473
-280,768,16208,-145,147,-6,268438473
-5784,-888,22544,7056,-17558,3814,268438473
936,1104,22220,16369,2674,4765,268438473
2868,3692,16160,18867,19853,-159,268438473
1712,3844,15144,13535,21607,-1601,268438473
-1420,3024,10232,8363,20991,-3050,268438473
-2860,1848,7348,-142,5408,-1216,268438473
-3500,1268,6256,-5770,-10226,1830,268438473
-2544,1352,6796,-10326,-18730,3235,268438473
-492,1460,9996,-13830,-17817,2737,268438473
1720,1568,16684,-25459,-32768,2794,268438473
32767,-11804,32767,-6157,32767,-8896,268438473
-2508,1292,6536,82,-4076,-2183,268438473
8068,2348,15700,2614,11750,-1346,268438473
-32,308,14400,692,-5069,-1786,268438473
-2276,1084,15696,-342,36,493,268438473
216,688,16472,-47,-308,30,268438473
-636,800,15744,-8,127,-35,268438473
-160,724,16400,10,-91,-14,268438473
-592,676,16136,-33,-369,15,268438473
64,564,15916,126,473,-28,268438473
-444,844,16276,-47,-117,28,268438473
-556,784,16192,-49,-479,28,268438473
-516,816,16276,-25,-340,170,268438473
-432,644,16036,-29,213,-32,268438473
-444,732,16132,-22,-35,-2,268438473
-420,700,16128,3,-61,-5,268438473
3628,1032,16648,-1833,183,253,268438473
-396,640,16416,-1180,-2905,149,268438473
392,1412,19472,-6374,-1545,-222,268438473
-220,1316,19512,-14360,-3639,-266,268438473
-456,692,18428,-21144,-3334,-1624,268438473
24,-1052,15672,-23508,-3712,-2347,268438473
1308,-3548,13276,-20814,-3014,-1834,268438473
1472,-4764,12756,-14989,-2624,-298,268438473
1108,-5768,13336,-9775,-1297,109,268438473
628,-5780,13944,-6223,-183,-792,268438473
528,-6144,14536,-3830,-916,-1581,268438473
1144,-6068,14432,-2260,-281,-1796,268438473
1264,-6120,14708,-1027,34,-1385,268438473
1412,-6168,14192,251,697,-869,268438473
1356,-6204,13932,2396,1680,-556,268438473
964,-6268,13180,6117,2409,-609,268438473
500,-5836,12544,11923,3253,-1086,268438473
568,-4944,12468,18664,5192,-1201,268438473
316,-3508,12444,26065,4249,-418,268438473
112,-1192,12828,32767,4803,141,268438473
1000,2208,22052,32767,5219,2934,268438473
7172,728,480,-11215,14584,203,268438473
-6112,244,10332,324,-6087,353,268438473
4924,288,12640,1966,9187,593,268438473
184,1548,17236,-319,-1914,931,268438473
-568,748,15308,940,2201,-696,268438473
-1576,720,19480,1341,1671,-74,268438473
-716,1532,20384,10601,4169,643,268438473
948,1896,21428,12710,14698,-156,268438473
-964,2452,19596,14667,21050,-2237,268438473
-3588,2916,16608,15263,25176,-1438,268438473
-5428,2888,14176,14094,19611,1100,268438473
-4168,3456,9992,11151,14258,2376,268438473
-3184,2972,7160,5275,11746,1567,268438473
-4160,2520,7688,1498,5604,1324,268438473
-5452,3728,10120,-163,-7896,3011,268438473
-4512,4824,11856,-3690,-14462,3366,268438473
-3588,5268,12564,-6425,-15887,2328,268438473
-2920,4644,12304,-9058,-15229,1166,268438473
-1804,3240,12160,-11720,-15867,229,268438473
-868,2692,12728,-13754,-14512,-512,268438473
276,1400,13592,-17822,-22748,489,268438473
2972,-232,20752,-21285,-11050,-1360,268438473
1696,-6540,-32768,-7599,31485,-5477,268438473
-6048,260,12928,-3048,-18276,246,268438473
-560,788,16784,-1863,7041,-673,268438473
84,1636,17480,23,-305,-143,268438473
-808,732,16228,191,-1905,322,268438473
100,540,16000,-483,-919,571,268438473
80,808,16220,-848,-565,550,268438473
88,1484,17188,-1630,-110,765,268438473
304,-396,17500,-3426,-1450,453,268438473
584,1596,20700,-10051,-2441,888,268438473
-56,1532,20176,-20967,-3709,2194,268438473
-436,540,17536,-29314,-4395,2213,268438473
300,-2840,14956,-30986,-3720,648,268438473
756,-4676,12148,-26783,-2168,-757,268438473
932,-7136,10900,-18672,-2288,-1225,268438473
904,-8876,10444,-8764,-1139,-2221,268438473
784,-8796,10628,1382,734,-3337,268438473
1036,-8560,12152,9264,2144,-3637,268438473
320,-7612,12068,15809,2722,-3392,268438473
1232,-5772,12896,22399,3549,-2908,268438473
1088,-3920,13232,28807,5163,-1884,268438473
960,-1716,13544,32767,5785,-489,268438473
660,392,15448,32767,6640,1958,268438473
24572,2692,16272,-6093,-8507,3486,268438473
-4532,-2212,17744,2606,15509,372,268438473
8468,2448,19396,4302,-7326,2335,268438473
-1736,576,14308,-450,841,45,268438473
-128,960,17808,980,-1617,462,268438473
-308,536,16744,209,793,-30,268438473
-308,-472,21440,6665,1472,-249,268438473
620,1128,21084,12140,6268,1119,268438473
-1048,2320,21128,18335,9306,2059,268438473
-1348,5372,18556,18123,18072,247,268438473
-1668,3932,14788,15883,24836,-1864,268438473
-1956,3020,9956,11462,28661,-2004,268438473
-3204,2388,6592,8208,24224,-794,268438473
-4404,2576,6344,3217,11131,-515,268438473
-5704,4268,8016,-1318,-1131,897,268438473
-5688,4924,9660,-5320,-8915,1322,268438473
-6444,4848,12704,-7440,-17515,1803,268438473
-3960,5408,13116,-9592,-26440,2733,268438473
-1852,3904,11916,-13296,-23195,1870,268438473
-1312,2148,11944,-16872,-23473,824,268438473
112,2000,15480,-21450,-30748,1366,268438473
4072,-396,21340,-20415,1147,-3330,268438473
-5548,308,14572,-32,14089,-2959,268438473
-3256,2068,32767,4031,-32768,3285,268438473
-2160,-1052,12096,-1473,-2457,308,268438473
-840,1416,17232,633,4142,-626,268438473
1096,624,16096,-97,-1849,126,268438473
-244,844,17048,-750,-1275,176,268438473
-164,1132,18144,-3956,-920,-83,268438473
-836,1984,20664,-12097,-2207,-230,268438473
348,1860,20860,-25829,-3682,2291,268438473
-564,304,18204,-32768,-4445,2613,268438473
-632,-588,14236,-32768,-4285,1354,268438473
132,-4436,11376,-32768,-3572,-66,268438473
360,-7084,8652,-25248,-2359,-1202,268438473
-16,-10680,8788,-12862,-1914,-2028,268438473
296,-12232,9296,135,-430,-4126,268438473
1020,-11396,10128,11376,1155,-6249,268438473
1664,-9876,10024,23019,2857,-7151,268438473
1044,-7076,10528,32767,6038,-7303,268438473
1472,-3824,12496,32767,8544,-5146,268438473
1984,400,13808,32767,11572,-1810,268438473
-400,5004,23784,32767,9154,3789,268438473
10224,300,8848,-13548,23627,4114,268438473
-1144,-1256,4252,3614,8679,4210,268438473
-13544,2152,32767,8050,-32768,8703,268438473
-1200,3016,30376,-4219,9294,1607,268438473
-2628,1456,23592,14248,-3738,3144,268438473
2788,3784,20384,21288,-2050,1818,268438473
3976,1096,19872,22484,9298,-1545,268438473
1400,2080,15976,21720,26041,-4465,268438473
-2268,2580,7672,14746,32767,-6402,268438473
-2108,2180,2052,5608,32767,-6735,268438473
-5320,4628,4412,1020,19763,-3744,268438473
-5720,5576,8704,-5021,-30127,737,268438473
-6424,3836,11944,-5612,-32768,5040,268438473
-2648,5356,13524,-10823,-22487,3770,268438473
-1732,5032,13728,-13855,-13230,838,268438473
512,3076,14936,-14562,-18918,-169,268438473
2984,2144,14616,-18093,-18677,-2355,268438473
1480,1160,17636,-20204,3686,-7234,268438473
-15232,-13808,-2344,-13733,14485,-4613,268438473
2368,4780,20204,-18247,-5608,-1245,268438473
104,1064,19880,-31375,-7946,-2279,268438473
-336,-1276,16080,-32768,-10421,-3145,268438473
532,-3080,14256,-32768,-9880,-2420,268438473
1700,-4308,11864,-32768,-8710,-1117,268438473
2688,-6612,9176,-27931,-6386,-939,268438473
2520,-9720,8280,-17716,-4274,-1232,268438473
2892,-11844,7236,-4399,-2163,-1840,268438473
3220,-12272,8636,9953,1967,-2174,268438473
2392,-14264,8740,25990,4669,-2270,268438473
1328,-12264,8984,32767,8525,-3835,268438473
-420,-6456,8332,32767,12960,-4759,268438473
608,-1164,14056,32767,21011,966,268438473
-7480,-484,21016,18425,19487,12959,268438473
1896,1184,8840,22881,15340,19521,268438473
-8252,2460,17240,17784,1944,10719,268438473
-1888,5264,8660,13005,19009,3644,268438473
-2452,5488,5240,2667,25361,102,268438473
-6716,4024,7492,-729,-2989,3990,268438473
-3736,5252,9196,-3623,-24182,6493,268438473
-2000,6012,13400,-7597,-17943,5014,268438473
496,4820,12700,-10499,-13088,2437,268438473
1808,3828,11232,-15526,-11990,-971,268438473
-2596,-6404,8916,-22470,-12331,-2072,268438473
4496,-1756,15124,-30042,-9831,283,268438473
-11136,-16296,18528,-21241,-10055,5493,268438473
-4904,6412,12628,-19008,-17122,2209,268438473
-2588,2008,15928,-16550,-17,-1590,268438473
-980,-708,15296,-16383,-1412,-2650,268438473
548,-3472,14744,-14752,-2046,-2729,268438473
928,-4836,12992,-9426,-1351,-1418,268438473
528,-4544,11672,-773,-137,338,268438473
40,-1724,10660,10548,1590,2902,268438473
948,-4220,13268,29692,17378,6426,268438473
520,-3276,12604,32767,-515,12362,268438473
5756,4268,32767,5884,-32768,11929,268438473
4236,4020,14540,19219,32767,-2839,268438473
-6128,5156,14660,14901,19604,-966,268438473
-924,3356,11664,10655,4776,2734,268438473
-2372,1592,9964,8727,6696,951,268438473
-3944,4,7924,1078,3109,1481,268438473
-2676,2172,7404,-5044,-9981,3565,268438473
848,2880,10324,-9089,-15742,2251,268438473
1604,-1128,11032,-14332,-22020,3520,268438473
4264,-3740,11660,-22662,582,1103,268438473
-464,1724,13164,-28875,-8624,322,268438473
21416,12140,32767,-19598,-14198,6345,268438473
-9020,1796,17736,-32330,-3778,-793,268438473
-2220,-2076,15552,-32768,-250,-4755,268438473
196,-4132,12624,-32768,-733,-4931,268438473
144,-5868,9832,-24306,-277,-1286,268438473
328,-9444,7920,-9658,550,3521,268438473
16,-9912,6972,10482,-5938,5116,268438473
212,-8848,7968,30155,-10293,4798,268438473
-68,-9460,9740,32767,-4416,3396,268438473
-140,-1872,8728,32767,2813,1474,268438473
15948,-13820,-32768,-96,-19735,5261,268438473
828,456,3316,-6523,25193,4155,268438473
208,1456,4428,3173,-32768,2764,268438473
7944,752,8392,5025,7895,-250,268438473
-2888,708,12068,-3152,-4844,1285,268438473
-204,380,16592,1533,1982,-650,268438473
-712,976,15404,-1049,-1264,-5,268438473
-952,760,16108,641,308,100,268438473
-176,564,16372,-120,-192,91,268438473
-436,580,16168,66,-457,40,268438473
-448,716,15764,-273,-74,0,268438473
-320,732,16088,62,-13,-6,268438473
-296,520,16464,114,-256,-16,268438473
-508,636,15948,-118,-312,2,268438473
-428,744,16128,-145,-129,4,268438473
-424,772,16136,10,-19,-7,268438473
-232,692,16420,81,-227,-27,268438473
-392,792,16216,-93,-289,36,268438473
-464,656,15960,-117,-185,32,268438473
-452,724,16340,-3,-73,-2,268438473
-280,596,16312,61,-202,-2,268438473
-380,616,16260,-50,-243,19,268438473
-444,676,15980,-125,-218,11,268438473
-300,708,16256,-8,-128,11,268438473
-292,676,16144,26,-171,1,268438473
-368,616,16240,4,-249,-3,268438473
-444,656,16152,-92,-166,5,268438473
-340,704,16052,-33,-139,16,268438473
-332,732,16276,-4,-191,-7,268438473
-424,772,16120,2,-198,-4,268438473
-344,692,16196,-47,-165,-30,268438473
-468,768,16076,-40,-131,-16,268438473
-372,692,16212,-7,-169,20,268438473
-444,704,16140,17,-228,33,268438473
-376,600,16060,-63,-218,-1,268438473
-416,708,16040,-41,-149,-16,268438473
-444,700,16240,28,-160,-16,268438473
-408,720,16244,-41,-175,-4,268438473
-412,704,16096,-64,-215,12,268438473
-392,700,16176,-55,-160,1,268438473
-376,700,16160,-4,-176,9,268438473
-356,732,16280,0,-177,-9,268438473
5008,1284,23756,15852,12682,-5101,268438473
3224,2628,13860,18736,24814,-10005,268438473
-968,1348,6452,7988,32767,-10556,268438473
-2400,-76,2432,-1157,28028,-11578,268438473
-6300,2216,4400,-9800,-3024,-11883,268438473
-4416,-516,6092,-16882,-32768,-9767,268438473
3604,1668,7108,-17406,-32768,6212,268438473
288,888,5676,696,32767,1461,268438473
2828,-140,-6936,-11711,-32768,4377,268438473
16700,-40,19696,6602,2340,310,268438473
1864,1984,4512,-3988,17216,-2201,268438473
1896,828,17576,1742,-13210,1949,268438473
-6360,3348,32767,23533,-288,3785,268438473
2588,3772,12760,23015,32767,-2246,268438473
760,372,740,3325,32767,-6793,268438473
-1332,-868,1472,-5336,30750,-8313,268438473
-932,244,-148,-17952,-15569,-5874,268438473
-32768,6776,32767,-27059,-32768,-682,268438473
1060,-4072,-27704,30343,20344,1586,268438473
3332,-364,-892,-14499,19137,527,268438473
-64,-2744,-29804,8556,8482,1222,268438473
604,-436,12752,391,4984,-1026,268438473
316,176,18080,-568,-6076,543,268438473
-84,408,16864,-799,421,-137,268438473
-352,604,15760,107,-34,-88,268438473
-140,792,16236,-53,-420,-12,268438473
-500,736,16228,-6,-58,1,268438473
-256,672,16472,-39,-488,-1,268438473
-316,688,16060,-72,115,-35,268438473
-368,804,16072,-32,-392,11,268438473
-176,720,16156,-33,-132,-2,268438473
-408,744,16252,-34,-343,16,268438473
-120,684,16164,-56,-99,-22,268438473
-360,688,15968,-33,-151,-11,268438473
-132,744,16236,-48,-283,-8,268438473
-312,792,16104,-57,-136,-14,268438473
-268,796,16272,-27,-287,22,268438473
-280,700,16036,-56,-46,-13,268438473
-264,852,16088,-32,-292,4,268438473
-264,760,16176,-34,-76,-32,268438473
-344,776,16280,-50,-228,-9,268438473
-248,808,16164,-55,-135,-14,268438473
-264,580,16200,-40,-194,0,268438473
-252,844,16208,-38,-218,-26,268438473
-284,772,16296,-46,-140,-27,268438473
-340,752,16228,-36,-225,-11,268438473
-312,784,16080,-19,-169,11,268438473
-284,828,16496,-24,-232,16,268438473
-256,636,16072,-25,-173,-6,268438473
-300,772,16120,-56,-211,-20,268438473
-356,788,16140,-47,-159,5,268438473
-296,640,16124,-45,-228,6,268438473
-248,708,16172,-39,-145,15,268438473
-244,788,16080,-32,-168,14,268438473
-256,664,16100,-27,-130,-34,268438473
-352,800,16264,-50,-183,-12,268438473
-272,684,16212,-16,-213,-4,268438473
-340,788,15984,-31,-144,8,268438473
-176,760,16256,-40,-171,-15,268438473
-400,716,16064,-50,-200,24,268438473
-300,784,16160,-40,-180,19,268438473
-248,800,16208,-9,-188,32,268438473
-244,780,16152,-37,-173,4,268438473
-180,708,16224,-36,-168,8,268438473
-308,632,16120,-40,-156,23,268438473
-328,692,16172,-29,-197,-3,268438473
-296,760,16044,-40,-196,-7,268438473
-284,744,16120,-34,-235,-3,268438473
-288,748,16176,-18,-172,10,268438473
-224,660,16216,-19,-192,-7,268438473
-264,744,16220,-67,-170,-7,268438473
-280,704,16076,-37,-210,-14,268438473
-224,684,16220,-35,-203,4,268438473
-276,712,16208,-12,-160,-4,268438473
-284,840,16288,-65,-159,13,268438473
-268,760,15972,-26,-140,-1,268438473
-236,724,16136,-27,-195,12,268438473
-316,768,16116,-33,-157,2,268438473
-272,712,16208,-14,-172,-13,268438473
-352,796,16208,-46,-183,38,268438473
-148,784,16172,-57,-202,13,268438473
-268,744,16088,-18,-191,14,268438473
-244,740,16216,-67,-171,7,268438473
-256,732,16148,-35,-190,21,268438473
-244,736,16140,-39,-159,-2,268438473
-364,712,16092,-43,-191,-4,268438473
-236,604,16244,-33,-172,-12,268438473
-304,660,16144,-41,-187,1,268438473
-292,736,16292,-43,-159,12,268438473
-164,796,16436,-40,-181,3,268438473
-276,724,16148,-47,-189,-5,268438473
-260,684,16000,-39,-205,-3,268438473
-276,672,15984,-38,-176,-25,268438473
-240,748,16008,-38,-198,0,268438473
-296,732,16080,-24,-174,-23,268438473
-332,776,16220,-29,-191,-4,268438473
-232,768,16192,-41,-170,-33,268438473
-256,796,16124,-30,-160,3,268438473
-412,712,16064,-59,-153,20,268438473
-340,748,16224,-46,-191,-19,268438473
-164,840,16264,6,-170,-24,268438473
---- Closed the serial port /dev/ttyACM0 ----
---- Opened the serial port /dev/ttyACM0 ----
-2104,1088,15928,-74,-138,-25,268438473
-2020,920,15924,-73,-323,-39,268438473
-1960,988,16096,-56,-232,20,268438473
-1928,1116,16020,-147,-330,42,268438473
-1988,1044,16048,-144,-498,33,268438473
-2120,1044,16024,-325,-661,41,268438473
-1772,1188,15976,-488,-859,-1,268438473
-1868,1092,16044,-361,-1032,95,268438473
-1584,1008,16024,-246,-2270,1009,268438473
-1904,1104,15828,-136,-2566,1006,268438473
-1820,1076,16108,-242,-2224,1027,268438473
-1624,996,16324,-165,-1657,361,268438473
-1396,916,16076,-430,-846,-104,268438473
-1252,864,16036,-426,-1136,-61,268438473
-1072,928,16244,-143,-774,6,268438473
-1128,812,16292,-71,-697,-4,268438473
-1096,668,16380,-6,-1011,-52,268438473
-1108,968,16264,358,-859,-102,268438473
-1924,1316,17264,526,-2543,435,268438473
-1988,1396,17828,-1398,-6102,630,268438473
-1208,1276,17528,-3823,-9338,203,268438473
-60,892,17872,-6250,-13460,118,268438473
1452,876,17856,-7380,-13276,974,268438473
704,204,16168,-6938,-13497,2066,268438473
1164,-648,15728,-6525,-13477,2108,268438473
2156,-960,14880,-5055,-13000,1509,268438473
3076,-1368,14584,-3168,-11804,1057,268438473
4116,-1568,14196,-1417,-9093,1133,268438473
4124,-1564,13804,24,-8768,1565,268438473
5008,-1380,14168,2046,-7198,1342,268438473
4980,-1000,14472,1959,-7554,855,268438473
5576,-996,14360,1066,-12534,1260,268438473
6788,-1160,15320,1223,-14803,2165,268438473
8216,-868,16400,754,-11749,2728,268438473
7524,-780,15528,-202,-11071,2153,268438473
8140,-784,15420,-1305,-11097,1336,268438473
8352,-1388,13860,-1700,-14095,715,268438473
10124,-1472,14120,-1794,-14582,694,268438473
10248,-1660,13824,-2050,-13260,1027,268438473
9852,-1620,12696,-3249,-14692,904,268438473
10644,-1960,11876,-3522,-16310,1314,268438473
11256,-2168,11396,-3979,-18368,1577,268438473
12916,-2828,10332,-3818,-18044,2149,268438473
12800,-2756,9252,-3282,-17824,2601,268438473
13432,-2816,9008,-3032,-18980,3126,268438473
13836,-2900,8108,-2934,-18354,3132,268438473
14492,-3088,7748,-2743,-15940,2563,268438473
15088,-3448,6932,-3049,-13860,2427,268438473
15588,-4000,7508,-2951,-10984,2381,268438473
15024,-3560,5056,-3101,-12165,2462,268438473
14928,-3672,4356,-2792,-12073,2102,268438473
15356,-3796,3936,-2783,-13242,1986,268438473
15424,-3896,3372,-2814,-12500,1946,268438473
14840,-4016,1012,-3225,-14278,1991,268438473
15788,-4368,1052,-2746,-15416,2632,268438473
16116,-4520,1088,-1786,-14036,2329,268438473
15944,-4636,948,-1872,-11487,1861,268438473
15952,-4840,220,-2596,-10816,1576,268438473
15708,-4560,-812,-3100,-9996,422,268438473
15552,-4788,-1516,-4714,-12039,1018,268438473
13132,-4332,-5172,-5459,-14728,973,268438473
15160,-4612,-4508,-4753,-14985,1252,268438473
15896,-4616,-4344,-2922,-12570,863,268438473
16672,-4788,-4696,-3316,-13823,1585,268438473
15884,-4724,-5756,-2593,-13119,1808,268438473
13580,-5088,-7192,-1614,-10619,1443,268438473
14928,-5248,-6892,-1928,-13763,2446,268438473
14380,-5068,-7416,-838,-12457,1455,268438473
14972,-5656,-7440,-2433,-14720,1995,268438473
13892,-5160,-8440,-1971,-11883,1648,268438473
14784,-6372,-3240,-1494,-7813,903,268438473
13492,-5760,-9448,-3641,-14813,1643,268438473
12736,-5000,-10308,-3137,-13807,693,268438473
12720,-4960,-10472,-4260,-13773,523,268438473
11776,-5032,-11504,-7010,-15213,753,268438473
11100,-4928,-12372,-8656,-18592,1227,268438473
9988,-4348,-13984,-9193,-19448,415,268438473
9452,-4036,-14620,-7604,-19080,-274,268438473
9724,-4252,-15140,-6043,-17049,-440,268438473
8676,-4624,-16880,-4423,-15972,399,268438473
8624,-4120,-16236,-1736,-14496,968,268438473
7120,-3876,-16408,-892,-14539,415,268438473
6724,-3380,-16064,-597,-14558,800,268438473
5696,-3288,-15744,-167,-13228,667,268438473
4920,-3232,-16040,-819,-13148,736,268438473
3780,-3188,-16460,-950,-13324,491,268438473
3328,-3288,-16852,-957,-15065,454,268438473
3052,-3500,-16924,-1029,-15524,675,268438473
1968,-3032,-17248,-593,-15308,578,268438473
1296,-2912,-17044,-342,-15818,593,268438473
980,-2916,-17080,-728,-14417,1106,268438473
44,-2772,-17300,-937,-11840,1362,268438473
-1400,-2552,-17992,-1442,-10910,1719,268438473
-1312,-2936,-18528,-749,-10839,1529,268438473
-1900,-2812,-17736,-405,-8953,1586,268438473
-2516,-2680,-17480,-569,-6890,1575,268438473
-3208,-2608,-17404,-587,-4027,1150,268438473
-3416,-2900,-17492,-616,-1120,746,268438473
-4084,-3076,-17540,-453,3614,163,268438473
-4488,-2880,-17672,-576,7430,-627,268438473
-3968,-3832,-17996,187,9477,-2072,268438473
-2760,-3640,-18640,1830,9432,-2004,268438473
-2144,-3444,-17568,2628,9679,-2144,268438473
-1684,-3060,-16684,1847,10130,-2510,268438473
-288,-3268,-17244,1505,11684,-2711,268438473
796,-3664,-17936,1262,10598,-2517,268438473
3028,-3472,-18076,1917,10628,-2277,268438473
3916,-3564,-17288,3884,13228,-3107,268438473
4872,-3676,-15964,3447,17228,-2015,268438473
4188,-3892,-16412,1561,22167,-926,268438473
3988,-3868,-18152,1373,23310,-1910,268438473
6048,-4052,-17068,900,19551,-2313,268438473
8740,-3896,-15292,1733,25549,-2100,268438473
9484,-4136,-14616,1217,31395,-2120,268438473
9696,-3480,-14664,-228,32767,-2292,268438473
11616,-4016,-13824,-937,31114,-2448,268438473
12528,-3616,-12376,-117,29563,-1725,268438473
13500,-3444,-10268,324,27878,-1361,268438473
13824,-2500,-9148,1658,28502,-2217,268438473
14084,-3440,-7956,2231,26311,-2462,268438473
15388,-3800,-6196,1855,23714,-1824,268438473
15560,-3484,-5396,1970,23172,-1302,268438473
15788,-3832,-4360,2964,22719,-1258,268438473
15432,-3756,-3484,3977,20742,-891,268438473
15716,-3540,-2156,4755,18151,-343,268438473
16972,-3504,-124,5508,19281,117,268438473
16096,-2908,576,5688,20962,-213,268438473
15424,-3308,1344,5141,16922,-112,268438473
16332,-3196,2800,5243,14962,579,268438473
16024,-2812,3748,5541,14855,1169,268438473
15152,-2664,4764,5178,14634,1195,268438473
14804,-2836,5680,4285,13927,555,268438473
15044,-2752,6064,3423,12989,-187,268438473
15532,-3032,6780,3901,14104,-275,268438473
14812,-3124,7268,4484,15153,143,268438473
14136,-2596,7860,4378,14305,518,268438473
13908,-2584,8432,3965,12491,523,268438473
13648,-2460,9484,4186,12079,280,268438473
13176,-2012,10148,3782,12239,-3,268438473
12204,-4468,11420,1651,10662,3073,268438473
10872,-1352,11168,560,8268,1648,268438473
10412,-2072,11084,-337,6457,1800,268438473
11336,-1976,11008,337,7219,1155,268438473
12312,-2728,11748,2281,10850,1199,268438473
11240,-2096,11828,3339,15259,2328,268438473
9940,-2404,12456,2805,15939,3181,268438473
9200,-2524,13688,1995,14270,2419,268438473
8336,-5164,14432,1879,18615,2252,268438473
5960,-2452,13560,417,25571,1302,268438473
5020,-2080,14448,3892,25978,-334,268438473
4884,-1952,14764,5624,26949,-52,268438473
3856,-2404,15732,4053,20319,260,268438473
2248,-2296,16324,3232,20734,1777,268438473
1516,-1828,16448,2909,18091,2314,268438473
416,-1116,16488,2463,15027,1760,268438473
-672,-1700,16160,3414,13551,949,268438473
-696,-1064,16400,3934,14246,1456,268438473
-1544,-676,16896,3858,16360,1649,268438473
-2860,60,16840,3547,16999,749,268438473
-3608,-316,17080,2844,17045,-382,268438473
-4388,-208,16376,1890,17674,-862,268438473
-4980,-16,15944,1190,17111,-422,268438473
-5236,-144,14980,1516,18762,972,268438473
-7040,328,14308,1715,19623,2034,268438473
-8216,1116,14016,472,18669,992,268438473
-9364,572,12876,-947,18066,-616,268438473
-5496,5084,12896,-6655,32767,-1506,268438473
-10720,660,11596,-6849,32686,1322,268438473
-12420,-1828,9872,-3187,15597,415,268438473
-12320,-1328,9268,-20,12363,-571,268438473
-12064,-592,8324,2634,13510,-562,268438473
-12940,-748,8100,3874,15151,-82,268438473
-13560,-416,6924,2238,14819,139,268438473
-13932,-348,6488,476,12870,963,268438473
-14236,-184,5644,-735,10927,1513,268438473
-14748,28,5256,-701,10556,863,268438473
-15160,-116,4748,620,10220,-880,268438473
-15076,-316,4684,2901,11701,-3109,268438473
-12624,2572,4812,4241,15296,-4720,268438473
-16772,-2456,2744,3021,15095,-4177,268438473
-16456,-1152,1824,1878,12597,-3326,268438473
-16088,-428,1300,1113,11519,-3149,268438473
-16072,-1276,800,1175,14569,-3935,268438473
-14940,-516,548,661,17016,-2694,268438473
-15996,-3044,-1288,596,22209,-1892,268438473
-15524,-1248,-3848,-241,18213,112,268438473
-15700,-1240,-5032,1791,15127,-425,268438473
-15512,-2764,-5168,2431,14510,-1379,268438473
-14960,-616,-5368,2112,11851,-1933,268438473
-14504,-1552,-5760,616,9763,-1169,268438473
-14348,-3664,-5600,479,8986,-836,268438473
-13708,-516,-6340,1805,9220,-805,268438473
-13656,-3396,-6364,1846,11679,-43,268438473
-14084,-2068,-7508,715,11311,-190,268438473
-13764,-1596,-7684,476,11661,-653,268438473
-13888,-2140,-8976,959,10909,-1231,268438473
-13472,-1848,-9324,1345,10739,-1986,268438473
-12924,-1512,-9204,1001,13675,-2296,268438473
-12684,-2028,-10192,162,16728,-2097,268438473
-12484,-2680,-11840,-542,14469,-2147,268438473
-11900,-3092,-11388,238,13566,-3032,268438473
-11124,-2968,-11932,-608,12323,-3670,268438473
-10256,-2480,-12128,-1511,12519,-3679,268438473
-9840,-2284,-13728,-2552,12926,-2113,268438473
-9568,-2368,-15192,-2821,12737,-1760,268438473
-8728,-2292,-15820,-1361,11702,-2787,268438473
-8012,-2628,-16108,178,9917,-3439,268438473
-7148,-3188,-15640,506,6744,-3614,268438473
-6620,-3476,-15168,834,5708,-3010,268438473
-6532,-3552,-14944,955,5458,-1784,268438473
-6460,-3256,-14364,-212,6174,-498,268438473
-6620,-3208,-15256,-1527,7316,0,268438473
-6504,-3048,-15472,-1353,7152,-729,268438473
-6148,-2912,-15288,-1814,7067,-970,268438473
-6068,-2672,-15572,-2960,8683,-423,268438473
-5840,-2220,-16228,-3145,10039,-966,268438473
-5016,-1932,-16096,-2411,11351,-3081,268438473
-3816,-1984,-16816,-2193,11858,-5331,268438473
-2528,-2424,-17240,-2884,10023,-5582,268438473
-1700,-2476,-17308,-2403,8434,-4444,268438473
-1344,-2596,-17356,-1484,9289,-3236,268438473
-1256,-2320,-17300,-1083,9294,-3082,268438473
-812,-2304,-17724,-1661,6311,-3567,268438473
-296,-2980,-17980,-1460,3244,-3370,268438473
208,-3204,-18008,-983,1620,-1722,268438473
144,-3524,-17844,171,779,-218,268438473
-196,-3052,-18092,634,-928,982,268438473
-824,-2776,-17804,22,-2589,1561,268438473
-932,-2512,-18132,-122,-2134,1543,268438473
-1436,-2400,-18344,321,-2775,926,268438473
-1428,-2532,-18428,680,-4014,143,268438473
-1332,-2768,-18348,743,-5501,185,268438473
-1292,-2868,-18080,659,-6750,1299,268438473
-1788,-3068,-18360,513,-8738,2231,268438473
-2380,-2856,-18028,672,-12408,2981,268438473
-3488,-2640,-17660,1746,-13267,3320,268438473
-4076,-2696,-17388,2592,-13704,3651,268438473
-4872,-2680,-16600,1875,-15139,4239,268438473
-5704,-2516,-16228,166,-17705,4493,268438473
-6280,-2768,-15724,-1322,-21225,4616,268438473
-7060,-2264,-14320,-1334,-23140,4883,268438473
-8292,-1996,-13396,-850,-18803,5856,268438473
-9684,-1524,-13452,-1102,-16433,5698,268438473
-10388,-880,-13428,-2503,-18190,4156,268438473
-11332,-532,-13328,-3001,-19569,2632,268438473
-11676,-872,-12212,-854,-16475,1575,268438473
-12504,-1148,-11528,839,-11398,1267,268438473
-12604,-932,-12160,377,-12455,906,268438473
-12988,-1476,-11080,-270,-17160,1801,268438473
-13048,-1172,-8888,430,-16437,4461,268438473
-13364,-664,-8420,1846,-11246,2967,268438473
-14140,-864,-8188,1861,-13336,2034,268438473
-13784,-840,-7064,1130,-15747,1898,268438473
-13472,-876,-5980,271,-15446,3349,268438473
-14744,-312,-5080,-137,-11544,4626,268438473
-14976,196,-5164,-575,-9420,3822,268438473
-15584,460,-5136,-1705,-11307,1854,268438473
-15528,484,-4848,-2749,-13749,501,268438473
-15872,1196,-4252,-2568,-14331,374,268438473
-15804,716,-3512,-1330,-13248,263,268438473
-14996,220,-2944,-515,-13973,225,268438473
-15648,-404,-1692,-440,-16287,-1480,268438473
-14828,-628,-168,-2331,-22570,-1879,268438473
-13688,-312,1512,-4316,-25037,-1942,268438473
-14224,-712,2492,-3682,-20783,-102,268438473
-14776,88,3536,-1229,-17329,2202,268438473
-14992,584,4016,-353,-16934,888,268438473
-15260,452,4624,-205,-18833,88,268438473
-14672,752,6300,273,-18553,-1026,268438473
-14444,692,7348,270,-16012,-1809,268438473
-14032,652,7624,161,-14676,-3017,268438473
-13588,-152,8716,287,-15224,-4241,268438473
-12444,-780,9904,-92,-13005,-4233,268438473
-11976,-1476,10136,-644,-9094,-3432,268438473
-11788,-1804,9840,-601,-7473,-2534,268438473
-11448,-1440,9276,-1200,-11021,-2689,268438473
-10988,-1664,10008,-1864,-16603,-3285,268438473
-10028,-1600,11636,-1770,-17962,-3470,268438473
-9268,-1712,12608,-489,-13488,-3163,268438473
-9416,-1244,11988,296,-12841,-3175,268438473
-8864,-1328,12620,-71,-15863,-4445,268438473
-7436,-1300,13716,133,-14646,-4825,268438473
-7000,-1644,14372,1035,-11661,-4413,268438473
-6216,-1740,14156,1044,-11656,-4334,268438473
-5144,-1604,14588,659,-12762,-3524,268438473
-4496,-1832,15496,257,-13013,-2153,268438473
-4324,-1656,16080,-187,-11595,-1313,268438473
-4248,-1760,15764,-744,-11542,-1465,268438473
-3684,-1752,15552,-897,-11739,-2230,268438473
-2736,-2296,15792,-887,-12793,-2766,268438473
-1960,-2368,16672,-1019,-12003,-2080,268438473
-1656,-2604,16520,-1121,-10564,-1403,268438473
-1604,-2596,16116,-1915,-13449,-1639,268438473
-640,-2632,16496,-2723,-15692,-1997,268438473
-80,-2888,16344,-2393,-15518,-1880,268438473
696,-2888,16492,-2710,-16052,-2166,268438473
1532,-2672,16288,-3704,-17216,-2779,268438473
2248,-2644,15568,-3928,-19602,-3879,268438473
4228,-3352,16148,-3575,-19857,-4854,268438473
5232,-3876,16128,-2827,-16259,-4161,268438473
5884,-3448,14448,-3808,-17249,-2708,268438473
7256,-3596,14232,-4261,-20965,-2524,268438473
8092,-3764,14564,-2104,-17006,-2821,268438473
8396,-3812,13664,-1616,-13444,-3022,268438473
9524,-3808,12628,-3130,-16382,-3385,268438473
10644,-4200,12176,-2823,-16348,-2572,268438473
10996,-4052,11532,-1565,-16446,-1609,268438473
11464,-3776,11532,-1518,-16582,-1563,268438473
12168,-3884,10724,-2605,-16357,-1706,268438473
12040,-3788,8884,-2805,-18019,-2075,268438473
12956,-3600,8900,-2298,-19461,-2706,268438473
13728,-4312,8904,-1614,-17615,-2774,268438473
13928,-4028,7972,-2135,-17076,-2588,268438473
15160,-3964,6584,-3495,-19529,-2513,268438473
15708,-3728,6376,-2618,-18380,-1915,268438473
15956,-3876,5020,-2748,-19182,-1194,268438473
16444,-3656,4328,-3254,-19888,-536,268438473
16596,-3412,3184,-3115,-19045,-273,268438473
16256,-3732,1976,-3716,-22445,116,268438473
16340,-3668,724,-3457,-22262,377,268438473
15972,-3720,-440,-3291,-23493,926,268438473
16180,-3668,-1084,-3830,-22989,1011,268438473
15548,-3544,-2984,-4652,-20853,1048,268438473
15308,-3448,-5544,-5681,-21853,526,268438473
15324,-3552,-6652,-4479,-22431,764,268438473
13996,-3248,-7464,-2824,-21066,838,268438473
13912,-3584,-8796,-2776,-20860,336,268438473
13372,-3664,-8744,-2953,-19589,763,268438473
12804,-3348,-9924,-2703,-17187,596,268438473
12596,-3184,-11736,-3271,-16861,175,268438473
12356,-3180,-12908,-3270,-16913,26,268438473
12304,-3092,-13672,-3438,-16584,167,268438473
11632,-2904,-14512,-3571,-16740,815,268438473
9940,-2092,-14812,-3502,-17289,440,268438473
9752,-2804,-15076,-3032,-16186,60,268438473
8160,-2528,-14792,-2350,-15047,-102,268438473
7512,-2596,-14360,-2626,-14408,-872,268438473
6980,-2844,-14968,-3487,-13174,-1428,268438473
6644,-2456,-15976,-4284,-11762,-1343,268438473
5752,-2768,-17108,-4444,-11959,-1408,268438473
4784,-1980,-17512,-3533,-11957,-1419,268438473
4828,-1228,-17112,-2635,-11687,-1754,268438473
5020,-588,-17140,-2771,-11303,-2260,268438473
4080,-636,-16612,-3132,-10533,-3012,268438473
3320,-756,-15932,-3581,-7949,-3496,268438473
3308,-252,-17424,-4092,-6017,-3714,268438473
3548,-164,-18160,-3374,-4958,-3175,268438473
3376,60,-19264,-1887,-3424,-2265,268438473
3548,124,-19228,-634,-2359,-1316,268438473
3680,264,-18492,456,1887,-257,268438473
3212,756,-18924,1897,6274,-211,268438473
3396,640,-18504,3212,7766,-1477,268438473
4712,-344,-17316,4753,10880,-2054,268438473
5536,-688,-17216,4164,13275,-1812,268438473
6292,-1092,-17132,4403,13260,-1125,268438473
6632,-900,-16364,5205,13207,-366,268438473
7228,-1268,-15608,4727,13487,73,268438473
7968,-1816,-15472,4474,15660,137,268438473
9168,-2756,-14720,4155,15202,847,268438473
9764,-3072,-14672,3621,16065,2916,268438473
9260,-2880,-15312,3603,14888,3670,268438473
9432,-2536,-13876,5277,15775,4060,268438473
9748,-2424,-12236,6601,22807,2430,268438473
10496,-2604,-13772,3068,19805,-211,268438473
12844,-4072,-12804,2498,13987,-257,268438473
14208,-3932,-10844,5540,19866,1507,268438473
13604,-3676,-10040,6913,26895,515,268438473
14400,-4276,-10008,6330,27630,-1526,268438473
16308,-5276,-7836,5880,22264,-376,268438473
16936,-5632,-5592,6935,24296,3387,268438473
14904,-5328,-5928,6721,24949,5299,268438473
14472,-5428,-5772,3975,11247,6043,268438473
15308,-5472,-2168,5085,9946,7215,268438473
13928,-4936,-684,6509,20721,5551,268438473
12980,-5004,-1136,6497,25795,235,268438473
14996,-5668,-384,5200,19959,-2679,268438473
17028,-6188,1708,5489,18912,-1066,268438473
16696,-5536,3492,7211,25165,909,268438473
15716,-5048,4088,7161,27118,159,268438473
15104,-5272,5652,6574,24005,-199,268438473
15128,-5500,7700,5952,21639,1673,268438473
13476,-4720,8768,5330,21534,3639,268438473
11924,-3848,9248,4301,20919,2832,268438473
11200,-4852,10084,3727,20337,1704,268438473
10444,-4572,10704,4677,20893,772,268438473
9956,-4548,11108,5150,20860,-521,268438473
9392,-4516,11656,4259,16630,-1064,268438473
9164,-4624,12648,4144,15237,-655,268438473
8580,-4452,13196,5049,17557,-318,268438473
7508,-4072,13476,4470,15417,-363,268438473
7048,-3952,14324,3496,12615,-244,268438473
6412,-3796,14512,3279,12118,179,268438473
5912,-3020,14220,2195,10518,509,268438473
5436,-3336,14808,1520,9645,923,268438473
5032,-3364,14760,1956,12441,1706,268438473
3536,-3304,14852,1200,17342,942,268438473
3452,-3248,14024,2069,11302,2574,268438473
3300,-2292,15284,3448,11346,2584,268438473
2032,-2904,15952,3394,11721,2497,268438473
1028,-2912,15696,2682,13229,1703,268438473
-48,-3036,15448,2303,10778,1234,268438473
72,-2608,16060,2138,9584,1346,268438473
-636,-2200,15844,2483,10062,1743,268438473
-1884,-1884,15696,2684,7828,640,268438473
-2732,-1508,15940,2130,5678,-1155,268438473
-2740,-1768,17308,1669,5885,-2715,268438473
-1932,-1192,17076,-232,11913,-2436,268438473
-2496,-1660,15836,-1822,13203,-1234,268438473
-3328,-2692,15764,-1606,11594,-459,268438473
-3864,-2372,15364,-1174,11297,56,268438473
-4548,-3296,15392,564,13080,716,268438473
-5696,-2844,15836,1725,16501,763,268438473
-6376,-2744,15552,1648,20107,-60,268438473
-7532,-2368,14140,1787,20510,-632,268438473
-8672,-988,13248,484,15568,-178,268438473
-9268,-2888,13304,-3142,6735,1827,268438473
-9108,-1652,14468,-4248,10082,3041,268438473
-9804,-2104,13996,-2826,17810,2563,268438473
-10764,-2056,12812,-2364,23442,1840,268438473
-10648,-2896,11020,-2401,24573,810,268438473
-10892,-2844,9092,-1059,23750,1799,268438473
-12484,-2968,8452,844,23941,1270,268438473
-13688,-2500,7196,1545,24818,248,268438473
-14144,-2416,5908,1498,23089,-558,268438473
-14148,-1944,4812,1377,21401,-697,268438473
-14496,-1752,4052,879,21111,-475,268438473
-15220,-636,3600,-1043,21381,-1314,268438473
-15440,-892,784,-3578,19338,-2178,268438473
-15424,-1700,-396,-4700,14390,-2555,268438473
-15256,-2736,-1104,-3690,12500,-2004,268438473
-15012,-3008,-936,-878,14128,-1288,268438473
-15148,-3144,-1648,1033,15785,-748,268438473
-15424,-2928,-2404,708,14265,-404,268438473
-15364,-2908,-2936,-297,12504,-407,268438473
-15360,-2844,-3148,-949,13284,-593,268438473
-15280,-3168,-4068,-954,13805,-738,268438473
-14876,-3100,-5108,-1307,13913,-495,268438473
-14456,-2972,-5988,-1959,13867,-220,268438473
-14152,-2936,-7068,-2480,13391,258,268438473
-14104,-2208,-7900,-2670,13650,1519,268438473
-14236,-1148,-9576,-2667,15111,3178,268438473
-14844,-876,-11604,-2054,12582,2246,268438473
-14376,-1180,-11816,182,7284,-658,268438473
-13068,-1552,-10180,2343,7814,-2292,268438473
-12624,-2372,-9584,2640,12243,-2997,268438473
-12048,-3476,-10372,1976,13635,-3481,268438473
-11304,-4216,-10440,1060,12723,-4305,268438473
-10480,-4424,-10008,475,13209,-4773,268438473
-9624,-4640,-10184,-773,15794,-4089,268438473
-9128,-4116,-11008,-2998,17785,-3490,268438473
-8272,-3584,-13208,-4871,17043,-4033,268438473
-7656,-3388,-14756,-5501,14656,-4335,268438473
-6720,-3288,-15768,-4454,13587,-4178,268438473
-6304,-3280,-16352,-2877,12521,-4158,268438473
-5552,-3300,-16244,-1704,10764,-3510,268438473
-5252,-2964,-16304,-1306,10898,-1912,268438473
-5396,-2504,-16156,-1188,11511,-1364,268438473
-5356,-2312,-16452,-1556,10390,-2221,268438473
-5008,-2140,-15912,-2219,10788,-3291,268438473
-4412,-2352,-16292,-4220,11682,-3659,268438473
-3604,-2516,-16652,-4582,11325,-4816,268438473
-2492,-2136,-16936,-4269,11901,-5315,268438473
-1060,-2716,-18228,-4327,11197,-5298,268438473
-460,-2156,-17800,-3059,8384,-5188,268438473
472,-2068,-17752,-2420,9527,-4235,268438473
1252,-2560,-18632,-1660,7106,-4590,268438473
2408,-2916,-18948,-703,4725,-4086,268438473
2584,-3328,-19024,-211,1906,-2204,268438473
1792,-3724,-19056,184,511,23,268438473
716,-3404,-18820,490,-293,1594,268438473
-56,-2576,-18168,612,-1281,1796,268438473
-732,-1820,-17792,397,-278,769,268438473
-384,-1712,-18016,-147,-33,-587,268438473
600,-2244,-18004,82,-524,-915,268438473
1048,-2120,-18144,654,-614,-202,268438473
1048,-2252,-17984,1113,-2863,90,268438473
1016,-2516,-17436,1498,-4472,407,268438473
532,-2576,-17284,1631,-5016,967,268438473
60,-3000,-17412,687,-7822,1282,268438473
276,-4064,-18180,123,-10682,2497,268438473
-64,-4164,-18540,-530,-14063,5819,268438473
-1852,-3068,-17304,-572,-14457,8860,268438473
-4540,-1944,-17592,-405,-12167,8427,268438473
-5280,-2480,-19028,-1205,-17075,5688,268438473
-5256,-2468,-18652,-629,-23699,4636,268438473
-6364,-1584,-15944,2396,-21905,4907,268438473
-7972,-708,-15056,3266,-14900,4822,268438473
-9756,-1392,-16704,1412,-17523,2890,268438473
-9680,-1460,-15672,1187,-23071,441,268438473
-9924,-1492,-13916,3153,-20469,-482,268438473
-10440,-1872,-14092,5309,-15792,-796,268438473
-10404,-1804,-14516,4604,-20869,-1231,268438473
-10232,-2384,-12604,3560,-28513,-1358,268438473
-10632,-2508,-9508,4187,-25775,649,268438473
-11796,-2752,-8328,4413,-19442,1712,268438473
-13128,-2912,-8820,3707,-21437,429,268438473
-13316,-3112,-7548,3226,-27340,-660,268438473
-13404,-2872,-4264,3532,-24492,-901,268438473
-13772,-3044,-3448,3230,-18092,-165,268438473
-14300,-3648,-4304,2275,-18848,213,268438473
-14300,-3252,-2016,2301,-21980,358,268438473
-14812,-2904,316,2248,-16588,744,268438473
-15388,-2552,-164,2081,-11841,687,268438473
-15828,-2776,-1392,1713,-16578,-335,268438473
-15316,-2628,120,2370,-21846,-1046,268438473
-15072,-2536,3176,3359,-19067,-1460,268438473
-14688,-2700,3740,3334,-14080,-1401,268438473
-14276,-3108,3320,2960,-15250,-1292,268438473
-13812,-3124,4120,2865,-20196,-1094,268438473
-13356,-3124,6632,2494,-18871,-571,268438473
-13104,-3104,7704,2722,-12996,-1,268438473
-12932,-2776,7000,2136,-11053,-480,268438473
-12140,-2732,6904,2192,-14700,-1453,268438473
-11300,-3548,8688,2758,-17032,-1274,268438473
-10972,-3876,10544,2837,-12467,359,268438473
-10796,-3264,9720,2352,-9111,1513,268438473
-11240,-2768,9868,2468,-10726,1855,268438473
-11180,-2912,10032,2164,-14305,1973,268438473
-9828,-2064,12004,1940,-12922,1466,268438473
-10040,-1880,12476,1318,-8474,1702,268438473
-10240,-1768,12060,1807,-6876,1262,268438473
-10028,-1484,12088,1757,-8264,44,268438473
-9232,-1708,12748,996,-10044,-200,268438473
-8760,-1980,13480,945,-9358,228,268438473
-8544,-1876,13328,897,-8001,212,268438473
-8292,-1680,13472,553,-9300,-150,268438473
-7900,-1712,14092,548,-9609,-729,268438473
-6884,-1900,13884,948,-9864,-755,268438473
-6456,-2312,14444,893,-11935,-587,268438473
-5972,-1616,14728,1560,-10061,-188,268438473
-5844,-1648,15340,2240,-8153,-184,268438473
-5512,-1480,15812,2147,-8567,-1158,268438473
-4948,-976,16468,937,-9843,-1931,268438473
-4332,-1156,16500,-47,-10338,-2403,268438473
-3760,-1328,16800,451,-10072,-2628,268438473
-3416,-1324,16784,-58,-10527,-2904,268438473
-2596,-1644,16672,-1084,-12323,-3463,268438473
-1648,-1812,16328,-1735,-14083,-3355,268438473
-896,-1864,16232,-2241,-16574,-3522,268438473
-76,-2068,17024,-2154,-16208,-3766,268438473
332,-1828,16704,-2064,-14658,-3809,268438473
1184,-1744,15900,-2836,-16711,-4767,268438473
2988,-2156,16300,-4379,-20646,-5058,268438473
4408,-2780,16168,-4541,-21112,-4658,268438473
4520,-2376,16060,-3456,-17883,-4491,268438473
5360,-2560,15000,-3817,-16811,-4677,268438473
6628,-2712,13596,-5752,-23068,-4398,268438473
8380,-3344,13644,-5218,-25365,-4108,268438473
9652,-3596,14252,-2080,-18748,-2653,268438473
9324,-3328,13328,-1652,-13976,-1675,268438473
10176,-3036,10960,-5053,-22803,-1697,268438473
12136,-3508,10784,-5061,-28821,-791,268438473
13076,-3716,11984,-2312,-22721,426,268438473
12840,-3772,10736,-3502,-17620,1008,268438473
13012,-3528,7488,-7603,-21843,916,268438473
13896,-4356,5520,-7467,-27760,1050,268438473
14456,-4596,5792,-4424,-24843,1862,268438473
14224,-4220,4984,-3897,-20283,2261,268438473
14412,-4148,2908,-6477,-25147,1645,268438473
15100,-4376,1784,-7024,-27150,942,268438473
15184,-4744,1204,-5695,-23452,676,268438473
15244,-5168,-636,-6156,-21001,447,268438473
15356,-5104,-2228,-7686,-22110,115,268438473
15692,-5168,-4248,-7778,-22913,783,268438473
15500,-5108,-5468,-7629,-26175,1763,268438473
15212,-5120,-5836,-5860,-21273,2994,268438473
14524,-4576,-7300,-6223,-18970,3689,268438473
13540,-4696,-8248,-7333,-19275,2954,268438473
13620,-4820,-9448,-6682,-18430,2970,268438473
11124,-4272,-9240,-6235,-15854,3025,268438473
11556,-4020,-10068,-6409,-11996,1627,268438473
11416,-4256,-11536,-7607,-9164,-660,268438473
11880,-3988,-13228,-9048,-10109,-1464,268438473
12404,-3756,-14392,-8696,-12658,-1330,268438473
13516,-4068,-15864,-5281,-11155,968,268438473
12404,-3580,-16272,-2078,-11136,1590,268438473
11144,-3644,-14532,-2612,-11801,1672,268438473
9084,-3364,-14308,-3943,-13510,1888,268438473
8084,-3012,-15060,-5396,-17630,687,268438473
7640,-3116,-14420,-4122,-14988,86,268438473
6876,-2676,-14696,-4211,-10994,112,268438473
6912,-2440,-15588,-5356,-10304,-976,268438473
7040,-2268,-15944,-5331,-8556,-1248,268438473
6668,-1904,-16844,-4266,-7402,-1523,268438473
6996,-1660,-16764,-3329,-5614,-1711,268438473
7244,-1588,-17248,-2730,-5041,-1169,268438473
6424,-1640,-17108,-1543,-2929,-344,268438473
6052,-1144,-17892,-943,-2655,-251,268438473
5832,-1144,-16988,334,-1710,-288,268438473
4804,-1184,-16636,1115,2319,-700,268438473
4864,-908,-16772,448,3307,-1600,268438473
5208,-1032,-17148,401,3221,-2037,268438473
5944,-988,-16628,1247,4598,-1995,268438473
6716,-740,-17160,1389,5979,-1858,268438473
7592,-1280,-17080,2081,6508,-1241,268438473
7616,-1176,-17568,3484,10885,-706,268438473
8044,-1304,-18280,4555,8846,-1431,268438473
9064,-1884,-17280,6755,9736,-1159,268438473
9324,-2144,-16136,7886,11425,-548,268438473
9688,-2172,-15500,7302,8869,-475,268438473
10512,-2968,-13612,7616,10458,-174,268438473
10232,-3260,-11660,8498,19383,-165,268438473
10160,-3532,-11080,10163,32767,-2435,268438473
10732,-3944,-14456,5717,23932,-6135,268438473
14292,-5220,-10968,3205,8163,-4296,268438473
14344,-4928,-7940,6259,15140,1121,268438473
12212,-3632,-7756,5814,23904,1864,268438473
12784,-3664,-8004,4243,28168,-2061,268438473
14200,-4056,-7920,4829,26388,-4500,268438473
16252,-4500,-6280,4649,21197,-3795,268438473
17172,-4600,-4568,4592,20039,-1080,268438473
17168,-4140,-3580,4599,21235,951,268438473
16964,-4172,-2904,4565,19642,1798,268438473
16780,-4240,-1744,4550,17062,2409,268438473
16716,-4236,520,5447,19750,2636,268438473
16060,-4196,2276,5957,25467,2317,268438473
15328,-3844,3180,5745,28931,1671,268438473
14676,-3820,4704,5168,27249,940,268438473
14164,-3880,6708,5321,27348,423,268438473
13248,-4168,7824,4660,27592,-205,268438473
12928,-3976,8552,2968,24147,-515,268438473
12636,-3980,9472,2690,22007,-8,268438473
11748,-4196,10148,2655,19213,976,268438473
11020,-3828,10904,2137,16669,1288,268438473
10780,-3864,11488,2078,14365,1371,268438473
10280,-4160,12136,2294,12818,1881,268438473
9588,-4020,12828,2095,14449,2380,268438473
8684,-3972,12912,1386,13778,2006,268438473
8340,-4056,13292,1005,11528,1552,268438473
7892,-4232,13908,1314,11254,1903,268438473
7224,-4224,14280,1428,12918,2668,268438473
6532,-3872,14220,1400,14545,3372,268438473
5196,-3652,14040,1159,12619,3096,268438473
4804,-3860,14516,677,9274,2940,268438473
4760,-4424,15580,-165,6671,4128,268438473
4628,-3868,16616,-1701,7790,6265,268438473
4108,-3372,14816,-2015,12823,7323,268438473
2120,-3548,13924,104,12676,7481,268438473
1104,-3672,14592,1488,10872,5775,268438473
1224,-3808,15620,1963,11074,4206,268438473
980,-3956,15692,1754,13366,3515,268438473
400,-4036,15208,1308,13033,3597,268438473
-508,-4020,14884,1117,10668,4042,268438473
-1264,-2440,15464,207,12941,2483,268438473
-1612,-4028,16068,29,10726,3564,268438473
-2472,-3976,15824,526,11451,3241,268438473
-2744,-3284,15732,666,11523,2934,268438473
-3584,-3620,15960,394,13157,2734,268438473
-4912,-3620,15824,224,14391,2963,268438473
-5608,-3324,15936,-204,17088,2315,268438473
-6260,-2864,14612,-504,19761,1064,268438473
-7216,-3340,13552,563,19938,478,268438473
-8192,-3128,13240,1181,18762,318,268438473
-9032,-2972,12744,1332,18504,-357,268438473
-9876,-3344,12584,1374,18357,-546,268438473
-10436,-3216,12024,827,19388,-588,268438473
-11516,-3092,11452,-284,19065,-851,268438473
-11560,-3516,11072,-60,21880,-1412,268438473
-12128,-3752,9848,978,26787,-1202,268438473
-13108,-3688,7848,1079,27938,-782,268438473
-14020,-3608,6196,630,25824,-846,268438473
-14668,-3680,5120,141,24268,-1228,268438473
-15412,-3692,3924,132,24621,-1703,268438473
-15640,-3408,2568,782,26158,-2648,268438473
-15656,-3672,716,800,25627,-3187,268438473
-15688,-3704,-540,502,22922,-3772,268438473
-15404,-3984,-1188,279,21410,-4585,268438473
-14540,-4352,-2324,-622,20218,-4678,268438473
-13628,-4724,-2992,-1815,19394,-3843,268438473
-13348,-4964,-3692,-3639,19588,-2370,268438473
-12908,-5408,-5400,-5527,20479,-927,268438473
-12852,-4908,-7116,-5858,18984,-55,268438473
-12956,-4756,-8320,-4892,18177,-238,268438473
-12752,-4472,-9036,-4410,16535,-1128,268438473
-12020,-4296,-9644,-4615,14753,-2000,268438473
-11340,-4496,-10360,-4470,15008,-1964,268438473
-10528,-4464,-10960,-3686,15478,-1492,268438473
-10212,-4264,-11844,-3757,15122,-1268,268438473
-9852,-4092,-12720,-3531,15357,-1609,268438473
-9148,-4072,-13400,-2886,15098,-2056,268438473
-8540,-4328,-13992,-2774,13874,-2270,268438473
-8088,-4056,-14500,-2934,13031,-2454,268438473
-7608,-4308,-14764,-2844,11555,-2707,268438473
-7116,-4156,-14736,-2937,10271,-2004,268438473
-6780,-3864,-14756,-3571,10887,-1304,268438473
-6540,-4224,-15560,-4097,11594,-1304,268438473
-5632,-3940,-15724,-4379,11545,-1228,268438473
-5396,-3120,-15404,-4496,13190,-883,268438473
-5556,-2792,-17128,-5133,15694,-1873,268438473
-4512,-2396,-18088,-5315,12073,-3954,268438473
-3508,-2456,-17984,-3618,10868,-5069,268438473
-2676,-2292,-17812,-3215,9048,-5149,268438473
-2276,-2468,-18124,-3073,9314,-5428,268438473
-1600,-2184,-17844,-2693,10082,-5138,268438473
-868,-1972,-18128,-2683,10621,-5268,268438473
276,-2084,-18232,-2436,8573,-5840,268438473
1508,-2200,-17512,-1622,7742,-4484,268438473
2464,-2568,-17832,-1155,7425,-3259,268438473
2584,-2244,-18088,-600,6046,-2231,268438473
2972,-2104,-18460,-602,3227,-1400,268438473
2832,-2276,-18512,98,1103,-505,268438473
2492,-2480,-18644,393,-2,566,268438473
1692,-2424,-18064,1,-646,1408,268438473
904,-2196,-18056,74,-363,1692,268438473
1172,-2276,-18280,151,-1013,1170,268438473
960,-2184,-18056,380,-1558,450,268438473
1364,-2340,-18188,477,-2612,286,268438473
1364,-2700,-18640,861,-4771,553,268438473
1524,-2864,-19088,1475,-8049,1830,268438473
788,-2852,-19280,2908,-10857,3270,268438473
-560,-2668,-18468,4201,-12038,4123,268438473
-1624,-2844,-18212,3949,-13338,3472,268438473
-2136,-3100,-18580,3407,-17211,3322,268438473
-2948,-3280,-18144,4355,-21106,3717,268438473
-4228,-2668,-17392,5382,-22627,3575,268438473
-5796,-2868,-16728,5619,-22668,2448,268438473
-6404,-3620,-16452,4738,-25266,764,268438473
-6428,-4200,-16008,3460,-30094,647,268438473
-7044,-3820,-14316,3434,-32768,2575,268438473
-9268,-3584,-12128,4978,-28374,3757,268438473
-11016,-3424,-11316,5403,-23096,2895,268438473
-12112,-3524,-10480,4454,-23413,553,268438473
-12176,-4036,-9256,3395,-24721,-1094,268438473
-12480,-4292,-8424,2877,-25744,-1076,268438473
-12984,-4304,-7076,3252,-25134,-1213,268438473
-13256,-4556,-6052,3639,-23225,-1074,268438473
-13656,-4824,-5508,3626,-23192,-916,268438473
-13908,-4548,-4124,3575,-25533,-1310,268438473
-14028,-4608,-2392,3036,-27883,-1998,268438473
-13784,-4912,-628,2935,-25895,-2179,268438473
-13528,-4904,288,3878,-21893,-1693,268438473
-13876,-4860,1084,6037,-18826,-800,268438473
-14516,-4796,2476,7254,-17347,149,268438473
-14784,-4740,4252,6141,-17224,239,268438473
-14584,-4536,5104,3517,-18284,-732,268438473
-13836,-4904,6280,1678,-19776,-1791,268438473
-12832,-5116,6988,1969,-17784,-2133,268438473
-12260,-5140,7852,3359,-15793,-1795,268438473
-12124,-5368,9464,4087,-15409,-1833,268438473
-11364,-5152,10220,3195,-15694,-1800,268438473
-10484,-5044,10852,1737,-14946,-1697,268438473
-10148,-5224,10676,887,-14157,-1386,268438473
-9392,-5128,10768,871,-14259,-1211,268438473
-8788,-5280,11016,538,-15277,-1322,268438473
-7904,-5100,10996,-79,-15965,-1191,268438473
-7448,-5572,11436,25,-16062,-896,268438473
-6752,-5460,12040,-20,-15932,-222,268438473
-5968,-4944,12440,-191,-14921,379,268438473
-5796,-4644,12616,1301,-12383,1137,268438473
-6048,-4380,12988,2450,-10863,858,268438473
-5176,-4724,14244,3251,-9145,422,268438473
-4916,-4460,14404,3439,-7386,-41,268438473
-4512,-4040,13916,3377,-7299,-816,268438473
-4124,-4192,14368,2931,-9357,-1177,268438473
-3640,-4148,14988,3007,-10070,-733,268438473
-3220,-3716,15540,3318,-9057,-1138,268438473
-2592,-3528,15400,2817,-8358,-2132,268438473
-1932,-3296,15412,2673,-8650,-2391,268438473
-1744,-2976,15256,3180,-8371,-2156,268438473
-1936,-2672,15868,3141,-10572,-2327,268438473
-1264,-2496,17044,2512,-11744,-2885,268438473
-540,-2144,16500,342,-16963,-3819,268438473
1224,-2672,17628,-638,-20198,-3938,268438473
2584,-3512,18600,-214,-16576,-3136,268438473
3120,-3600,17756,-1965,-15948,-2515,268438473
4232,-3344,16456,-4494,-21596,-1584,268438473
5824,-3800,16228,-4338,-24582,-1152,268438473
6556,-4096,16900,-3095,-21969,-798,268438473
6920,-4076,16056,-4037,-19647,-1081,268438473
7908,-4356,14532,-6235,-21964,-1806,268438473
9324,-4312,13044,-6799,-23318,-1993,268438473
9952,-4608,12460,-5961,-20940,-2595,268438473
10524,-4584,11488,-8181,-22079,-3078,268438473
12372,-4908,9812,-11196,-28442,-2369,268438473
13224,-5520,8284,-10043,-27651,-196,268438473
13432,-5424,6412,-7795,-25664,1553,268438473
13356,-5276,5076,-7634,-27350,1400,268438473
14648,-5492,3448,-7931,-27163,-442,268438473
14808,-6340,3252,-6556,-24096,182,268438473
15008,-5940,1728,-6328,-21519,1047,268438473
15276,-6444,132,-6997,-22428,1305,268438473
15036,-6076,-1352,-7709,-25229,1399,268438473
15432,-6228,-2248,-7392,-26109,1316,268438473
15176,-6308,-3352,-6768,-23241,1717,268438473
14860,-6516,-4924,-7137,-21702,2250,268438473
14508,-6688,-6264,-7212,-20354,2776,268438473
13832,-6460,-7320,-7141,-17834,3637,268438473
12928,-6520,-8468,-7044,-15498,3600,268438473
12080,-6488,-9324,-7227,-13112,2981,268438473
10952,-6384,-9576,-8051,-11915,2390,268438473
10592,-5628,-10500,-9728,-12492,1690,268438473
10324,-5296,-11400,-9898,-14338,378,268438473
10400,-5248,-11772,-9031,-13177,-866,268438473
11136,-5004,-12284,-8173,-12556,-1254,268438473
11004,-4956,-12992,-8087,-12987,-687,268438473
10844,-4368,-13308,-8329,-13178,436,268438473
10232,-4296,-13868,-8608,-13277,1418,268438473
9832,-3904,-14656,-8808,-13001,2324,268438473
8896,-3208,-14992,-9189,-13700,2489,268438473
8736,-3236,-16036,-8885,-13184,2382,268438473
7736,-2652,-16348,-7598,-11929,2602,268438473
6804,-2572,-16692,-6924,-9626,1745,268438473
5664,-2208,-16508,-5748,-8954,1022,268438473
5588,-1584,-17896,-3923,-6203,-56,268438473
5088,-1768,-17400,-2209,-5292,-1800,268438473
6288,-2164,-17620,-258,-3794,-2120,268438473
6688,-2072,-17872,43,-3297,-849,268438473
6448,-1672,-17976,-591,-4818,257,268438473
5740,-1680,-17896,-407,-3430,605,268438473
4680,-1660,-17864,337,-3860,72,268438473
4500,-1940,-17120,1139,-1696,-914,268438473
4988,-2124,-16884,215,-1929,-428,268438473
4672,-2260,-16420,-816,-1023,533,268438473
3996,-1176,-16908,-463,1923,886,268438473
4164,-1068,-17576,1476,5909,-655,268438473
5456,-1504,-17860,3462,7476,-1888,268438473
6624,-2016,-16560,5141,9175,-1618,268438473
7296,-1308,-17252,5851,15255,-1691,268438473
8408,-2340,-17340,7103,17543,-2725,268438473
9612,-3592,-16340,10258,19261,-2720,268438473
10760,-3832,-15308,12670,24318,-525,268438473
11296,-4112,-14828,12708,24589,1261,268438473
11272,-5300,-13216,12337,19880,2129,268438473
11756,-5080,-11532,10870,13592,2511,268438473
12088,-5952,-10276,10604,18858,3280,268438473
11472,-6400,-9724,11009,27989,3335,268438473
11648,-6784,-9276,12423,32421,1546,268438473
12860,-6560,-8624,11541,29674,-45,268438473
14328,-6976,-7016,10554,24936,-162,268438473
15032,-7792,-4636,11813,24958,1511,268438473
14932,-7668,-2612,12775,28679,4143,268438473
14388,-7292,-1892,11979,30020,4485,268438473
13504,-7672,-280,10396,27121,3312,268438473
13564,-7748,1268,9745,24526,2568,268438473
13636,-7568,3060,9562,24290,2703,268438473
13292,-7752,4504,9570,25339,3247,268438473
11816,-7768,5684,8615,23095,4128,268438473
11080,-7140,7112,7474,19204,3767,268438473
11136,-7248,8276,6589,17081,3152,268438473
11164,-7320,8888,5738,16222,2924,268438473
10100,-7280,9228,5837,14776,3522,268438473
9364,-7024,10072,5454,9188,3753,268438473
9280,-6852,11712,5242,8862,3497,268438473
8616,-7260,11964,5258,11782,3053,268438473
8308,-6900,12008,4800,12561,2855,268438473
7704,-6820,12020,4887,13036,1575,268438473
7388,-6848,11804,7272,15372,-193,268438473
7704,-5728,13396,8263,13003,-367,268438473
6416,-6004,15120,6452,13993,515,268438473
5768,-6212,14860,4401,16136,575,268438473
5088,-5848,14252,3600,16422,840,268438473
3980,-5620,14084,3890,15740,633,268438473
3332,-5296,14672,4659,15335,62,268438473
2668,-5392,15396,5768,18906,-137,268438473
1540,-4988,15064,6352,20821,377,268438473
240,-4416,15872,5313,19577,764,268438473
-632,-3900,16112,4335,20405,1411,268438473
-2232,-4640,15648,3312,22450,1159,268438473
-3052,-3492,14484,4340,19420,1997,268438473
-4480,-3608,15220,5447,18713,2482,268438473
-5320,-3204,16420,5698,23766,2850,268438473
-6660,-3052,15564,4936,28661,2488,268438473
-8264,-2728,13544,4024,28832,1837,268438473
-9780,-2548,12988,4267,25449,2532,268438473
-11572,-2156,13236,3911,26889,1928,268438473
-11748,-1488,11788,2601,32380,-102,268438473
-11728,-1892,8296,3999,32767,-976,268438473
-12056,-2072,6348,5833,32767,509,268438473
-12700,-1604,5456,5615,31059,2527,268438473
-14504,-944,5260,4465,29589,2782,268438473
-16048,8,3284,2822,29452,55,268438473
-15316,-444,2892,237,24430,-784,268438473
-16100,-340,480,-83,19730,-1412,268438473
-15812,-996,-52,234,18735,-1393,268438473
-15924,-1272,-852,501,18368,-1448,268438473
-17420,-600,-420,-1352,18008,-2113,268438473
-15544,-1128,-2332,-4624,21990,-5940,268438473
-14008,-2128,-4752,-4811,19772,-4759,268438473
-14468,-2144,-5168,-4331,19248,-2017,268438473
-14248,-1868,-6864,-3061,22385,-1747,268438473
-13648,-2692,-8668,-3551,22062,-2976,268438473
-12920,-2224,-9756,-5345,18544,-2579,268438473
-11864,-1792,-10128,-6028,19950,-1900,268438473
-11396,-1848,-12632,-6353,19919,-1307,268438473
-11448,-1328,-13412,-5403,16652,-1696,268438473
-10240,-2264,-15300,-4458,13942,-1902,268438473
-9760,-2072,-14948,-2932,8580,-1415,268438473
-9144,-1460,-13412,-2010,9266,-891,268438473
-8920,-1016,-13172,-2816,13235,-625,268438473
-8388,-1168,-14664,-4931,13406,-1285,268438473
-8004,-1032,-15308,-5692,10312,-1586,268438473
-7700,-1020,-16308,-4186,8519,-1384,268438473
-7372,-788,-16312,-2165,7057,-1549,268438473
-6612,-960,-16508,-1611,4183,-1697,268438473
-6376,-1196,-16900,-1468,-874,-1544,268438473
-6348,-1076,-15964,-785,-5131,46,268438473
-7260,-460,-15932,-855,-7164,1063,268438473
-8148,-304,-16412,-1964,-14469,520,268438473
-9428,-24,-16504,-4568,-30089,-1837,268438473
-8844,-560,-15824,-3664,-32768,-1002,268438473
-11304,648,-9788,-1587,-32768,1205,268438473
-13312,1416,-7648,-878,-27421,2221,268438473
-14228,1176,-10944,-1012,-19815,1047,268438473
-14832,1132,-11768,-2221,-32768,-1552,268438473
-15192,-116,-7924,-1024,-32768,-2754,268438473
-13928,8,-3896,2374,-32768,2079,268438473
-13488,760,-408,5616,-32768,3663,268438473
-14248,-44,1192,4868,-32768,2904,268438473
-13668,-68,2764,869,-32768,620,268438473
-12436,-672,6084,-2071,-32768,-286,268438473
-13600,-580,11324,-1149,-32768,1995,268438473
-12072,1552,10452,-1769,-27372,1998,268438473
-12068,976,11180,-2510,-26755,2832,268438473
-12104,364,12096,-4174,-32768,3042,268438473
-6900,1064,14916,-5492,-32768,877,268438473
-4808,-328,14732,-5246,-28412,-571,268438473
-2908,-2240,16092,-3926,-24183,1375,268438473
-1244,-1504,14372,-3136,-20167,927,268438473
-2404,-1324,14732,-1875,-20245,1545,268438473
-808,-28,15492,1066,-13940,2195,268438473
-1556,1472,15832,2699,-10489,1808,268438473
-2404,344,16532,253,-10559,613,268438473
-1468,124,16888,-3009,-14836,-725,268438473
-272,828,17612,-4743,-14878,-2170,268438473
60,468,16664,-3962,-10373,-4582,268438473
712,-728,16276,-4159,-13531,-4827,268438473
2288,-1272,16604,-5976,-19978,-4493,268438473
4480,-2040,17332,-5980,-20059,-5117,268438473
4044,-984,16152,-4058,-14481,-4251,268438473
4268,-1012,15240,-3582,-17383,-3159,268438473
6224,-1904,15448,-3012,-18530,-2581,268438473
6900,-2016,15740,-2232,-17038,-2381,268438473
7752,-1924,14936,-2368,-16730,-1679,268438473
9012,-2544,14036,-3017,-21946,-558,268438473
10240,-1896,14344,-3081,-23501,395,268438473
9644,-1504,13912,-2116,-16956,463,268438473
10812,-2260,12692,-2502,-18185,-521,268438473
12320,-3896,11380,-4103,-23193,-450,268438473
13448,-3184,10576,-4724,-23890,-885,268438473
13564,-2640,8916,-3379,-19284,-1028,268438473
12532,-2980,7296,-2972,-19690,-1038,268438473
14140,-3628,5300,-2759,-22779,-2538,268438473
14536,-2380,5696,-1453,-24752,-2410,268438473
14608,-2540,4564,-60,-21122,-1897,268438473
15328,-2660,3852,-578,-23262,-2213,268438473
16704,-3028,2004,-1614,-25925,-3569,268438473
16008,-1320,928,-516,-24917,-4058,268438473
16032,-1568,1332,293,-22776,-4315,268438473
16548,-2052,-1156,-1672,-20542,-4535,268438473
16540,-1628,-2016,-3255,-21526,-2701,268438473
16292,-980,-3300,-2553,-19255,-2186,268438473
16268,-1044,-4612,-2171,-18859,-1665,268438473
15604,-192,-5804,-2269,-18920,-1063,268438473
15360,-376,-6872,-2971,-20044,698,268438473
14680,-692,-7804,-3626,-19966,1722,268438473
13864,-780,-9752,-3114,-20252,2098,268438473
13512,-548,-11044,-2485,-20127,1653,268438473
13084,-792,-11872,-2008,-19587,1094,268438473
12592,-708,-12420,-1319,-18978,1185,268438473
11792,-1168,-12532,-1228,-19528,1454,268438473
10876,-1400,-13072,-1234,-18246,1600,268438473
9804,-1248,-13812,-1731,-17886,1372,268438473
9340,-628,-15088,-2441,-17926,797,268438473
8708,-280,-15852,-1800,-15927,-85,268438473
8904,132,-16200,-1477,-15174,-1072,268438473
9064,-456,-16200,-1200,-13782,-591,268438473
8204,-664,-16780,-850,-11188,418,268438473
7320,-896,-17136,-533,-10193,1074,268438473
6364,-688,-17132,-365,-8207,1270,268438473
5272,-676,-16844,-87,-5310,687,268438473
4900,-692,-17152,-666,-2815,-447,268438473
5264,-784,-17464,-1097,298,-895,268438473
5580,-812,-18264,-1331,3036,-934,268438473
5672,-772,-18652,-1164,7637,-820,268438473
5868,-400,-18768,-1235,9827,-730,268438473
6452,-200,-17780,-14,14259,-1216,268438473
7360,44,-16788,685,19078,-1755,268438473
8964,352,-16032,1065,19696,-1839,268438473
10156,132,-14492,1670,23597,-1459,268438473
10860,200,-14464,188,26262,-521,268438473
11724,332,-13708,364,27763,-286,268438473
11776,56,-11432,2206,31027,-1157,268438473
12656,-616,-9968,1810,29447,-2221,268438473
14264,-352,-8068,2403,29414,-1818,268438473
14264,-588,-6388,3263,32767,-1736,268438473
13984,-480,-6996,-1250,32767,-4205,268438473
18368,-1232,-6628,-1273,17843,-3430,268438473
17820,-16,-2432,5856,27773,335,268438473
14388,816,336,5418,32767,1471,268438473
13664,744,-100,-1001,23540,-2476,268438473
17784,-72,856,124,14253,-2062,268438473
16644,1196,2688,4381,20581,-232,268438473
14984,1204,4884,2637,22409,-1028,268438473
15772,188,5156,-513,16700,-1210,268438473
16304,464,5672,-415,15302,694,268438473
14768,584,6900,828,15507,1534,268438473
13796,-8,7976,106,20529,-7,268438473
15280,-4,8168,-2335,17313,-1199,268438473
15192,-228,8988,-2295,18554,142,268438473
13200,164,10128,-1515,20087,1146,268438473
11728,452,10528,-2136,25090,428,268438473
10596,108,10932,-2675,28430,-1813,268438473
10936,-184,12172,-3415,24999,-1928,268438473
9992,-84,13480,-2387,23946,-276,268438473
7712,200,14132,-2837,24648,665,268438473
5924,144,12976,-3302,24692,470,268438473
6168,-456,13988,-854,23112,352,268438473
6204,-652,15588,941,22720,1243,268438473
4320,-884,16516,744,22908,2632,268438473
1804,-604,16000,-759,20725,3622,268438473
196,-244,16944,-28,19146,3544,268438473
-688,-384,17684,46,25112,1828,268438473
-2916,-604,17192,-1507,26409,985,268438473
-3200,1024,16336,-915,30390,-1282,268438473
-5672,-1800,14928,-3470,28502,-2585,268438473
-5560,-332,14152,-3020,28855,-1851,268438473
-6908,-876,14400,-2785,27086,-674,268438473
-9152,-1960,12920,-3741,24848,-3,268438473
-10088,-2928,11952,-3640,24857,1352,268438473
-10820,-2224,10528,-2070,24669,1043,268438473
-11116,-1588,10572,-785,23189,738,268438473
-13912,-892,9904,1801,21231,1504,268438473
-14532,-1300,9540,1095,23615,-1366,268438473
-14016,-1812,7364,-512,27029,-3637,268438473
-13932,-1756,5100,501,24756,-2370,268438473
-13984,-1596,4136,2181,20589,-1375,268438473
-13812,-1828,4108,2285,22085,-1810,268438473
-14464,-1584,1980,2147,24225,-1772,268438473
-15328,-1620,1272,1279,19743,-954,268438473
-15684,-2168,2188,-93,17594,15,268438473
-14816,-2176,340,-544,19793,780,268438473
-15124,-2624,-600,-314,19272,1018,268438473
-15840,-2056,-1728,-778,17200,1152,268438473
-15280,-1988,-1932,-1420,19196,284,268438473
-15280,-1780,-3932,-3307,19213,18,268438473
-14224,-1920,-5200,-4758,17835,596,268438473
-14792,-1492,-6540,-5052,18553,350,268438473
-15428,-1628,-7588,-4829,19668,-1078,268438473
-14148,-1684,-8148,-5561,17399,-3059,268438473
-11576,-1332,-10132,-6463,16878,-2108,268438473
-11848,-836,-12900,-6450,16189,536,268438473
-13420,-1272,-13960,-2545,14278,-1082,268438473
-11440,-1332,-14064,-257,15135,-784,268438473
-9584,-1780,-12844,685,14677,-144,268438473
-9852,-1256,-13764,373,14404,681,268438473
-10348,-800,-13868,162,12266,550,268438473
-10148,-924,-13772,582,13221,1,268438473
-9628,-1288,-14628,243,13154,-276,268438473
-9216,-1284,-14440,1019,13133,-811,268438473
-8388,-1012,-14668,1754,14287,-1598,268438473
-7612,-1436,-15628,1209,13634,-1908,268438473
-6792,-1768,-16512,1255,11556,-1987,268438473
-5868,-1900,-16824,1462,10558,-1584,268438473
-5656,-1916,-16176,1303,8982,-1200,268438473
-5188,-2144,-16932,815,7170,-1576,268438473
-4460,-1804,-16204,1191,6745,-1781,268438473
-4092,-1960,-17208,791,8267,-1961,268438473
-3272,-2028,-17228,113,6705,-1499,268438473
-2528,-2256,-18024,190,4824,-1023,268438473
-2128,-2588,-17952,427,-117,-379,268438473
-2500,-2196,-17304,908,-1914,587,268438473
-3108,-2124,-17292,-150,-4553,917,268438473
-3864,-2416,-17716,-1378,-7199,1590,268438473
-4640,-2772,-18316,-1730,-12342,2470,268438473
-5844,-2216,-17464,-57,-15577,3150,268438473
-7228,-1712,-17256,719,-19177,2515,268438473
-7884,-1384,-16548,124,-23432,1998,268438473
-8716,-1648,-15588,438,-22865,1757,268438473
-10216,-1708,-15628,434,-28714,698,268438473
-10284,-1732,-13784,-27,-32768,205,268438473
-10768,-1696,-10940,-904,-32768,719,268438473
-12336,-1768,-9896,-992,-29884,1372,268438473
-13532,-1376,-9532,-254,-27635,1336,268438473
-14304,-1304,-8648,-277,-30678,491,268438473
-14560,-1408,-7400,-844,-32768,-567,268438473
-14400,-1324,-4708,0,-32768,-1058,268438473
-14488,-1532,-3024,1162,-30061,-563,268438473
-15024,-1444,-1336,1658,-28613,-687,268438473
-15316,-1292,-248,527,-32761,-1818,268438473
-14416,-1620,1840,-1069,-32768,-3335,268438473
-13276,-2228,4448,-1067,-32768,-3134,268438473
-12412,-2376,7104,-398,-32768,-2348,268438473
-12256,-2412,7964,303,-28311,-1577,268438473
-11240,-2544,9720,708,-27689,-1337,268438473
-10500,-2344,10156,656,-29812,-1168,268438473
-9476,-2776,11668,396,-26156,-1467,268438473
-8512,-2660,12580,-172,-24849,-505,268438473
-7652,-2612,13820,-282,-26266,-165,268438473
-6748,-2216,14648,-2182,-24684,272,268438473
-5452,-2760,14420,-2691,-24479,304,268438473
-4584,-2672,15452,-2628,-25261,181,268438473
-3260,-2720,16240,-1750,-23318,-47,268438473
-2464,-2636,16712,-1592,-21155,-610,268438473
-824,-2932,16272,-2041,-19664,-1498,268438473
96,-2708,14952,-2400,-20477,-1924,268438473
1024,-3356,15416,-2212,-23358,-2498,268438473
3084,-3708,15852,-1699,-23594,-3059,268438473
4480,-3376,16032,-868,-17880,-2669,268438473
5064,-3304,15084,-1484,-16679,-1853,268438473
6184,-3732,14580,-3235,-23311,-700,268438473
7896,-3272,14528,-2963,-24592,314,268438473
8708,-3500,15028,-657,-18123,-399,268438473
8400,-3432,13700,-1772,-17237,-1271,268438473
9924,-5720,12400,-4746,-29561,-1713,268438473
10684,-4044,11408,-2056,-26284,-2788,268438473
10632,-2064,11216,441,-19608,-4420,268438473
8924,-2316,7168,-2216,-29721,-6824,268438473
11424,-1644,7308,-4647,-32768,-11410,268438473
13932,-3240,7788,-1600,-28400,-16560,268438473
14692,-1200,6236,1060,-24454,-17677,268438473
19012,-2772,2404,2540,-23845,-9825,268438473
19912,-1444,2816,2915,-24446,-3405,268438473
17632,-96,3368,1394,-22271,-1651,268438473
16296,148,2388,-1451,-24498,496,268438473
15392,-68,1440,-3373,-22737,-392,268438473
15560,-464,-820,-4697,-23590,-1908,268438473
16600,-884,-3320,-4547,-25494,-659,268438473
16472,-596,-4332,-2578,-24568,1563,268438473
15668,-752,-5600,-1328,-24872,2612,268438473
14968,-516,-6212,-2399,-24820,3635,268438473
15108,-680,-7988,-3348,-24476,3791,268438473
14808,-192,-9668,-3216,-25547,4884,268438473
14656,-356,-10940,-3448,-25922,5839,268438473
13512,-1184,-11748,-3410,-26188,6591,268438473
12276,-1592,-11944,-4708,-22589,8199,268438473
11228,-1016,-13144,-7655,-23843,9434,268438473
10028,-480,-16244,-10003,-25352,9974,268438473
8984,-348,-16376,-8669,-23569,10323,268438473
5852,-892,-16064,-5852,-17470,8051,268438473
5360,-704,-15844,-4567,-13496,5366,268438473
5080,-556,-16072,-3932,-7131,4306,268438473
4272,-612,-17828,-4175,-6295,4232,268438473
5512,-68,-18008,-3054,-6329,3003,268438473
4976,-292,-18380,-1463,-1931,2847,268438473
4732,88,-18528,-1327,3912,2833,268438473
4724,-196,-18604,-660,10082,2589,268438473
5064,-428,-18380,1351,15193,1702,268438473
6508,-168,-17612,3274,23043,1267,268438473
7100,-504,-17156,2962,22111,1752,268438473
9784,-1144,-15424,3955,27196,1539,268438473
11736,-1020,-14120,4992,32767,2608,268438473
11216,-1696,-13284,4565,22885,4433,268438473
13360,-1720,-11184,4797,18630,3114,268438473
14052,-2592,-9564,5313,29799,3486,268438473
13572,-2952,-8572,4023,32767,3427,268438473
13644,-2768,-7500,2705,31343,2361,268438473
14748,-2344,-6492,2703,16066,557,268438473
17444,-2948,-4468,4242,19036,-530,268438473
17260,-3152,-3132,4957,32262,332,268438473
15880,-3012,-2048,2520,32767,988,268438473
15272,-2752,-940,25,32767,288,268438473
15528,-3092,1948,-354,29592,-1203,268438473
16236,-2964,3548,818,30278,-1504,268438473
15172,-2756,5008,1445,32531,-1258,268438473
14596,-2872,6308,1596,32427,-1569,268438473
13296,-3048,7940,1320,29464,-1281,268438473
12368,-3020,10244,982,27883,-971,268438473
11508,-2328,11036,-1216,27846,-1176,268438473
11452,-1844,12132,-2297,27050,-1740,268438473
10432,-2744,12524,-1664,26944,-1700,268438473
9400,-3088,13372,-1814,28603,-360,268438473
7324,-2708,14288,-3656,26624,1276,268438473
6296,-2936,15348,-4763,22077,3028,268438473
5352,-3024,15884,-5361,22133,3440,268438473
4196,-3472,16032,-6415,24893,3428,268438473
3008,-3680,15800,-7009,24562,4405,268438473
1544,-5012,15296,-6754,23291,6768,268438473
220,-4656,15488,-6021,22738,8480,268438473
-1016,-4948,15096,-5599,24209,9767,268438473
-2820,-5240,14132,-4409,25431,11499,268438473
-4956,-4852,13620,-2734,23470,12301,268438473
-5816,-4140,13604,-637,24168,12443,268438473
-6320,-4280,13464,-284,27894,12993,268438473
-7248,-5144,13204,-3121,28042,13441,268438473
-8892,-3480,12796,-6928,27652,10873,268438473
-10568,-3860,11496,-9386,32767,7165,268438473
-12984,-4944,13360,-4946,13853,6223,268438473
-14460,-4180,8252,-3814,25126,787,268438473
-13084,-4720,7308,-2007,22300,-511,268438473
-13364,-4428,4696,-907,21036,-2125,268438473
-12944,-5000,3892,-447,19778,-1805,268438473
-12592,-5288,3608,86,21347,-128,268438473
-12616,-5424,3700,1028,22040,1785,268438473
-13320,-5260,1960,401,19793,3725,268438473
-14852,-4588,2040,-174,18591,4830,268438473
-15716,-3788,1436,371,19466,4216,268438473
-16148,-3692,-612,-323,20826,3592,268438473
-15596,-3896,-2548,-511,21885,2919,268438473
-13980,-3568,-4700,-126,24579,3203,268438473
-13660,-2904,-5180,-1918,22004,4675,268438473
-13252,-2984,-6940,-3074,20603,6858,268438473
-13260,-2108,-8248,-3670,20626,8360,268438473
-12912,-2456,-9120,-2707,21321,9204,268438473
-13512,-1980,-10192,-703,19192,7602,268438473
-14372,-1184,-9812,1270,18676,5280,268438473
-13620,-152,-10636,830,17597,3678,268438473
-12884,-940,-12064,3125,20998,1357,268438473
-11504,-860,-12768,4957,18566,-1,268438473
-11296,-408,-12956,5390,16165,-196,268438473
-10460,-1040,-13668,4670,16622,-1175,268438473
-9204,-1064,-14024,4461,16606,-2043,268438473
-8824,-2556,-14776,4995,18942,-3997,268438473
-7412,-2864,-16200,2661,11968,-3115,268438473
-6252,-3172,-16344,1528,6255,-1182,268438473
-5792,-3452,-17148,2289,2735,379,268438473
-6064,-2868,-15980,2576,1010,1555,268438473
-6596,-2660,-15344,555,-1813,2026,268438473
-6748,-3004,-15984,-253,-1989,2090,268438473
-7464,-3376,-16920,711,-3068,2074,268438473
-8440,-3540,-17348,2017,-8190,1996,268438473
-9212,-3428,-16076,2649,-13421,1130,268438473
-10120,-4036,-15024,2579,-16587,382,268438473
-11064,-3280,-14964,1813,-21181,617,268438473
-11804,-2900,-13720,1120,-30212,-469,268438473
-11884,-2948,-11848,917,-32768,-2933,268438473
-11236,-2948,-9528,988,-32768,-4654,268438473
-11984,-3700,-8852,281,-30980,-3503,268438473
-12708,-4300,-7436,-306,-32768,-1625,268438473
-13304,-3860,-4836,-1228,-32768,-1490,268438473
-13628,-3348,-1820,-507,-32768,-1186,268438473
-14036,-4004,1048,-112,-32768,219,268438473
-12876,-3716,2148,-1126,-32768,903,268438473
-11520,-4036,3924,65,-32768,78,268438473
-11644,-3892,6860,1622,-32768,1426,268438473
-11728,-3548,7764,716,-31159,2545,268438473
-11128,-3976,9292,-421,-32768,1263,268438473
-9896,-3744,11728,1169,-32768,-121,268438473
-9024,-4072,12704,1764,-28345,-171,268438473
-6848,-3388,12428,455,-26351,-1329,268438473
-6076,-4220,13044,435,-29637,-620,268438473
-4652,-3684,14396,1981,-27871,-324,268438473
-3568,-3068,16172,4057,-19802,276,268438473
-2880,-2568,15936,3164,-15885,635,268438473
-1728,-2812,16492,1461,-18558,1277,268438473
-1480,-2900,17248,2830,-12662,1551,268438473
-1608,-2492,19264,1890,-5872,924,268438473
-1700,-2128,17860,1282,440,-188,268438473
-1308,-2344,17348,-767,-3052,-1407,268438473
-852,-3148,16164,-541,-8754,-1666,268438473
-372,-2804,15992,1213,-13393,-1859,268438473
1048,-2420,15408,1714,-14709,-2709,268438473
2184,-2524,15284,2701,-13020,-3619,268438473
2784,-1920,14772,2991,-12065,-3143,268438473
3200,-1384,15012,2728,-11895,-1829,268438473
2792,-932,16564,3104,-10263,-1454,268438473
3572,-656,16228,3431,-8483,-922,268438473
4840,-736,15252,2132,-4343,-2714,268438473
5200,-128,15444,602,-4460,-4351,268438473
5392,-32,15660,1114,-6388,-4424,268438473
6132,-248,15324,2508,-3724,-3040,268438473
6560,76,14508,2147,-3583,-1673,268438473
5596,112,14244,1548,-7904,-1886,268438473
5236,-88,14292,1733,-4735,-1598,268438473
4964,-328,13852,4042,5310,-1802,268438473
4436,-196,13104,4891,14447,188,268438473
5084,164,14820,3257,17772,-306,268438473
5208,516,18948,1550,24089,-1568,268438473
-476,1032,19244,-2056,18917,51,268438473
676,572,17056,-3901,7450,-645,268438473
1240,128,14716,-3125,12678,-1120,268438473
-684,-1336,18264,-652,6050,284,268438473
128,-456,18148,107,3985,-217,268438473
292,-760,16524,-1180,-515,-795,268438473
156,-264,16624,-1935,30,-1315,268438473
2000,-416,9072,-2295,17113,-1434,268438473
2596,1000,4472,-3714,32767,-1948,268438473
-4176,1604,10812,6076,9338,3911,268438473
-7556,364,21328,-957,784,1225,268438473
-4680,64,14616,-1935,-1949,240,268438473
-3784,-992,14044,174,-659,-427,268438473
-2920,-120,14996,2163,3255,39,268438473
-4424,432,15936,30,357,-365,268438473
-3888,132,15492,72,49,-731,268438473
-3864,32,15396,501,-728,-1137,268438473
-3900,124,15680,554,-1303,-1532,268438473
-3960,-80,15428,546,-1128,-1499,268438473
-4476,-364,15648,236,-941,-220,268438473
-3756,-384,15408,203,-707,-432,268438473
-3856,-272,15204,230,-275,-600,268438473
-3712,28,15476,260,-901,-689,268438473
-3704,-20,15496,320,-1670,-875,268438473
-3928,-264,15156,185,-2311,-738,268438473
-3552,-80,15544,127,-4121,-731,268438473
-3752,80,15156,-82,-6143,-276,268438473
-2892,-716,19072,-21,-3353,28,268438473
-3080,-68,15396,315,-520,-444,268438473
-3064,8,15448,223,-2134,-388,268438473
-2876,12,16656,151,-2814,-168,268438473
-3216,-256,16204,243,-2254,-343,268438473
-2480,-192,16012,236,-2098,-571,268438473
-2132,300,14144,334,-4811,-20,268438473
-2680,564,15300,343,-3911,-221,268438473
-2656,-340,16076,190,-2304,-451,268438473
-2248,-872,16536,175,-8860,366,268438473
-1772,-628,17412,231,-1480,150,268438473