ax, ay, az, gx, gy, gz, temp
-3344,-3104,15856,1592,2271,2742,268438473
-3656,-3212,15428,524,2174,2869,268438473
-3968,-3156,14888,276,3426,3185,268438473
-3656,-3124,15196,-741,3628,3356,268438473
-4060,-3688,15280,-912,3965,2578,268438473
-4208,-3284,15392,1338,1602,462,268438473
-4348,-3636,14988,817,864,-298,268438473
-4144,-3460,14852,1484,-231,-126,268438473
-4000,-2736,14808,1849,239,292,268438473
-4068,-3004,14848,2215,-1786,-9,268438473
-3364,-2964,14680,2627,-4308,151,268438473
-3920,-2316,15028,2384,-5041,363,268438473
-3572,-2504,14796,1676,-4171,831,268438473
-3388,-2184,14964,2450,-3629,344,268438473
-2808,-2308,15844,2154,-5882,-74,268438473
-2396,-2052,15580,1528,-6335,-160,268438473
-1988,-2188,15800,986,-5884,486,268438473
-1976,-1992,16072,564,-7206,1114,268438473
-2340,-2088,16628,939,-8735,197,268438473
-1376,-2240,16648,870,-9707,-1534,268438473
-556,-1640,16060,946,-11264,-1928,268438473
-216,-1792,16056,-125,-10853,-1139,268438473
528,-1508,15984,-864,-10579,-1005,268438473
1004,-1700,15372,-831,-8777,-449,268438473
1648,-1760,15752,-452,-7814,-571,268438473
1756,-1832,15896,289,-10077,-1401,268438473
2448,-1828,16128,344,-11423,-1972,268438473
3112,-1764,16012,32,-11684,-1743,268438473
4004,-1780,15348,-274,-10171,-958,268438473
4628,-1716,15548,46,-11115,-319,268438473
5156,-1680,15120,446,-12276,-199,268438473
5244,-1492,15016,1715,-13797,-578,268438473
5880,-1460,15152,1901,-13172,-672,268438473
6496,-1340,15240,1627,-11569,-143,268438473
7116,-1528,14808,727,-11022,-324,268438473
7568,-1380,14420,370,-9704,-475,268438473
8292,-1168,14060,-93,-8441,-237,268438473
8880,-1096,13516,880,-8921,-159,268438473
9212,-1072,13580,1380,-9290,557,268438473
9280,-1400,13456,1963,-9820,885,268438473
9476,-1432,13576,1626,-8157,821,268438473
9608,-1268,13688,554,-7025,497,268438473
10192,-1300,13852,-222,-7308,373,268438473
10408,-1088,13128,-1083,-9468,-202,268438473
11344,-1016,12212,-1540,-8408,39,268438473
11484,-1216,11720,-1445,-7364,579,268438473
11760,-1320,11288,-1704,-7143,809,268438473
11924,-1392,10868,-1559,-6449,962,268438473
11832,-1564,10812,-1241,-7254,882,268438473
12472,-1996,10464,-1087,-8190,478,268438473
12448,-1676,10012,-1399,-6458,701,268438473
12772,-1796,9816,-1022,-5738,702,268438473
13144,-2088,9880,-1213,-6823,712,268438473
13348,-1712,9372,-1445,-7147,641,268438473
13048,-2140,9040,-952,-8081,707,268438473
13468,-1988,9012,-987,-7731,269,268438473
14000,-2024,8580,-930,-8697,209,268438473
14116,-2036,7644,-841,-8381,112,268438473
13924,-2204,7388,-380,-7547,64,268438473
15060,-2164,7160,-152,-7571,-193,268438473
15400,-1932,6996,318,-8707,34,268438473
15228,-2080,6688,5,-10095,375,268438473
15152,-2196,6244,245,-10906,16,268438473
15732,-2248,5328,434,-8867,162,268438473
15784,-2348,4964,57,-6809,424,268438473
16572,-2292,4912,385,-6435,850,268438473
16208,-2600,6072,-768,-6621,1311,268438473
16204,-2456,4484,-1158,-7211,1197,268438473
16000,-2436,3800,-1114,-6648,1112,268438473
16296,-2240,3696,-1047,-7111,876,268438473
16544,-2456,3084,-1444,-7968,1478,268438473
16644,-2820,2336,-1210,-7071,1421,268438473
17024,-2820,2392,-1311,-5385,1454,268438473
17100,-2624,2068,-1436,-6099,2026,268438473
16892,-2600,1560,-1019,-7324,2473,268438473
16568,-2576,1176,-74,-8451,2481,268438473
16792,-3192,904,-312,-9048,3066,268438473
16120,-3524,744,-431,-10506,3205,268438473
16300,-3660,336,-1178,-11648,2874,268438473
16680,-3368,-552,-1868,-11923,2696,268438473
16104,-3912,-1480,-2965,-13247,3158,268438473
15940,-4040,-2116,-3577,-11776,2996,268438473
15652,-3956,-2844,-3946,-10860,3212,268438473
15696,-4120,-3748,-4139,-12061,3229,268438473
15268,-4540,-4460,-4215,-11934,2972,268438473
16028,-4492,-4836,-4191,-12568,3284,268438473
16024,-4216,-5536,-4031,-13259,4748,268438473
15480,-4640,-6436,-3402,-13767,4448,268438473
15328,-4824,-6976,-3606,-14212,4769,268438473
14732,-5084,-7684,-4310,-15336,5454,268438473
13892,-5520,-8312,-5261,-14923,6368,268438473
11576,-5056,-9660,-5784,-15678,5855,268438473
11560,-5532,-10524,-4067,-12276,3241,268438473
12024,-5472,-11052,-2286,-10267,3130,268438473
12464,-5876,-11464,-1246,-10256,3163,268438473
11984,-5864,-11432,-1163,-10600,3468,268438473
10148,-5928,-11752,-1323,-8164,3020,268438473
10452,-6232,-12308,-1551,-4862,1078,268438473
11828,-5660,-12812,-1968,-7214,846,268438473
11476,-6012,-12900,-1083,-8404,884,268438473
10680,-6148,-12888,-738,-5901,1086,268438473
9412,-6300,-13308,-967,-2679,1569,268438473
9612,-5828,-13960,-931,709,731,268438473
9916,-5864,-14364,122,5403,-223,268438473
10124,-5688,-14024,2047,12125,-1211,268438473
11352,-6248,-13364,4236,17335,-2953,268438473
11612,-6112,-11692,5482,18462,-3721,268438473
12668,-6024,-10716,4390,20537,-3528,268438473
14052,-6128,-9168,3678,19283,-2806,268438473
14240,-6324,-8476,2553,14643,-3343,268438473
14924,-5840,-6888,1853,12589,-3192,268438473
14728,-5524,-7140,660,11574,-2091,268438473
14272,-5636,-6600,877,13302,-2064,268438473
14700,-5244,-6240,739,14554,-2723,268438473
13972,-4860,-6104,269,11768,-2816,268438473
14876,-4012,-5928,2307,15788,-4058,268438473
15972,-4784,-3152,2139,14295,-3325,268438473
15684,-4760,-2352,1176,11124,-3217,268438473
16496,-4564,-2064,786,10620,-2675,268438473
16096,-4748,-2924,383,11172,-2663,268438473
15964,-4140,-2468,1149,12857,-2364,268438473
16308,-4344,-1372,2069,10925,-2741,268438473
16480,-3968,-428,2756,10437,-2714,268438473
16644,-4120,944,2172,8708,-2241,268438473
16652,-4096,956,1661,9524,-2527,268438473
15828,-3376,1300,1187,11614,-1948,268438473
16060,-3652,1632,1939,10980,-2624,268438473
16200,-3364,3012,1806,10459,-2031,268438473
15432,-3480,3308,2184,8870,-2236,268438473
15748,-3292,3940,2126,10360,-2753,268438473
16136,-3324,4864,1551,7873,-2513,268438473
15788,-2580,4000,1675,7770,-2129,268438473
15672,-2744,4620,2171,12499,-1801,268438473
15588,-2764,6440,1938,13129,-1754,268438473
15148,-2328,6832,1647,9510,-1047,268438473
14444,-2420,6932,1761,9922,-1217,268438473
14708,-2436,7724,2257,11305,-1298,268438473
14020,-2156,8492,2102,9460,-1436,268438473
13880,-2080,8252,1525,12415,-1553,268438473
13524,-1892,8876,1857,15666,-1190,268438473
12900,-1620,10220,2073,15404,-1259,268438473
12980,-1508,11692,1484,10483,-779,268438473
12104,-1468,11744,514,8068,-221,268438473
11048,-1532,10936,79,10576,-581,268438473
11304,-1644,11612,631,14344,-806,268438473
11252,-1564,12336,286,10103,-772,268438473
10456,-1308,12016,960,7728,-316,268438473
9176,-1144,12580,1470,11389,-239,268438473
9332,-1492,13332,1314,13546,-702,268438473
9004,-1332,13972,597,10995,-630,268438473
8456,-1312,14484,374,9524,-607,268438473
8016,-1264,14032,-445,9807,-503,268438473
7392,-972,13496,-245,10785,-216,268438473
6644,-1320,14412,389,12539,-110,268438473
6172,-1288,15000,108,12824,-374,268438473
5704,-1132,15592,278,11927,-188,268438473
4564,-1216,15144,-401,12416,-262,268438473
4344,-952,15476,-297,14564,-617,268438473
4220,-984,16200,-82,13394,10,268438473
2488,-1304,16360,-67,12531,388,268438473
1092,-1312,15904,-445,14515,-56,268438473
732,-1232,15768,-576,18336,-224,268438473
640,-1304,15992,-461,19067,-26,268438473
-288,-836,16608,257,14523,82,268438473
-1408,-1084,16536,252,12094,414,268438473
-2640,-1276,15372,261,13159,627,268438473
-3188,-1192,15800,-66,17089,854,268438473
-3928,-1420,16024,-759,16442,372,268438473
-4396,-1288,15956,-669,12158,-79,268438473
-4512,-1216,15068,-456,8893,-229,268438473
-5104,-1256,14296,-202,10227,341,268438473
-5788,-1192,14312,-394,13656,990,268438473
-6556,-1396,14448,-376,16069,1159,268438473
-7308,-1484,14504,143,12794,439,268438473
-7500,-1280,13764,211,9839,558,268438473
-8204,-1292,12964,197,10946,883,268438473
-9108,-1172,13208,360,13663,1339,268438473
-9876,-1372,12880,-173,14842,1364,268438473
-10192,-1492,12940,-737,12665,197,268438473
-10492,-1216,11548,-521,10326,43,268438473
-11356,-1464,10780,41,11392,370,268438473
-11736,-1412,10092,-105,14743,575,268438473
-11992,-1416,10176,-142,16075,801,268438473
-12256,-1168,9604,135,12541,593,268438473
-13016,-992,8728,264,13189,960,268438473
-13264,-1036,8552,635,12616,928,268438473
-13748,-1008,7892,-172,14252,1416,268438473
-14412,-1044,7648,-231,12447,462,268438473
-13976,-648,6108,-391,10861,760,268438473
-14348,-792,5440,-525,11656,1472,268438473
-14844,-1080,5144,-425,11760,961,268438473
-14844,-508,4508,-371,9511,652,268438473
-15264,-624,3516,-49,9813,1062,268438473
-15160,-584,3252,-236,11558,1127,268438473
-14768,-496,2720,-788,10273,1557,268438473
-14928,-328,1440,-531,10824,1793,268438473
-15004,-520,1844,-124,10599,2198,268438473
-16024,-528,648,-495,9486,2152,268438473
-15884,-504,316,-1111,12126,1561,268438473
-15708,-228,-324,-1200,12859,1386,268438473
-16100,1040,-1328,-1579,12278,1170,268438473
-16020,-24,-2496,-1453,12323,433,268438473
-15344,-840,-2840,-1154,14232,235,268438473
-14952,436,-2412,-1064,12598,990,268438473
-15292,-140,-3352,-1919,12467,828,268438473
-15520,-232,-4788,-1994,11820,625,268438473
-15576,40,-5396,-1952,11129,403,268438473
-15028,472,-5936,-1245,11324,103,268438473
-14600,64,-6604,-1360,10389,623,268438473
-14504,344,-6704,-1009,8191,1384,268438473
-14612,352,-6980,23,3237,551,268438473
-14148,664,-5840,1179,-2894,942,268438473
-15656,896,-6072,1005,-8415,770,268438473
-16496,624,-5696,1072,-10860,-850,268438473
-15204,648,-4892,424,-10983,-1670,268438473
-15384,472,-4992,356,-13269,-1301,268438473
-15884,104,-4676,1387,-17791,-1674,268438473
-16564,292,-3652,594,-14961,-1022,268438473
-16608,-32,-2716,-552,-13709,-1640,268438473
-16480,276,-2256,-770,-15465,-1743,268438473
-16060,-16,-1700,453,-16293,-1516,268438473
-15444,-620,-1324,558,-10860,-683,268438473
-16088,-584,164,123,-9367,-962,268438473
-15900,-360,756,-255,-10659,-1416,268438473
-15524,-192,384,339,-9622,-997,268438473
-15676,-508,1540,788,-9268,-567,268438473
-15728,-372,2548,507,-9424,-613,268438473
-15364,-528,3140,824,-11609,-1061,268438473
-15540,-372,3140,730,-10130,-701,268438473
-14860,-676,4412,526,-8358,-266,268438473
-15092,-396,4708,457,-10232,-228,268438473
-14836,-580,5228,1584,-13330,-1054,268438473
-14432,-404,5340,1586,-11920,-262,268438473
-14904,-528,5864,1308,-8609,293,268438473
-14040,-656,7336,1265,-9305,-556,268438473
-13340,-516,7392,1137,-11664,-763,268438473
-14168,-460,7540,1079,-13079,-643,268438473
-13956,-524,8116,1105,-11342,-1341,268438473
-12864,-632,8728,574,-9326,-1084,268438473
-12556,-496,8988,-275,-7716,-623,268438473
-12400,-496,9464,-52,-7617,-843,268438473
-12220,-680,9736,-240,-7951,-972,268438473
-11576,-504,10108,-75,-8814,-1019,268438473
-11096,-676,10428,269,-9561,-742,268438473
-11028,-588,10932,166,-10061,-721,268438473
-10592,-712,11096,606,-10641,-1077,268438473
-10460,-628,11656,658,-10477,-561,268438473
-9988,-800,12492,854,-11467,-720,268438473
-9312,-796,12656,635,-12864,-953,268438473
-9188,-692,12656,563,-12140,-880,268438473
-8896,-960,13180,199,-10729,-1263,268438473
-7384,-732,13472,-70,-10266,-1287,268438473
-7104,-656,13552,392,-10236,-331,268438473
-6896,-844,13724,865,-9641,-215,268438473
-6628,-916,14556,512,-8928,-114,268438473
-5964,-660,14488,580,-10831,-367,268438473
-5004,-460,14252,1042,-10682,106,268438473
-4856,-556,14924,1038,-9184,632,268438473
-5048,-776,15368,990,-8268,302,268438473
-4408,-612,15632,475,-7940,-13,268438473
-3648,-528,15836,140,-9845,-205,268438473
-3280,-376,15840,446,-10872,-249,268438473
-2488,-332,16040,357,-10425,342,268438473
-1920,-476,15916,124,-9648,326,268438473
-1448,-312,16276,472,-8957,308,268438473
-1648,-676,16468,264,-7947,96,268438473
-1268,-840,16916,-956,-5922,-358,268438473
-604,-116,16556,-3069,-3784,-570,268438473
-396,-1320,15392,-2811,-8054,-1613,268438473
16,-876,16320,1217,-10060,-889,268438473
748,-472,16404,254,-12150,-615,268438473
816,-764,16520,411,-11695,-353,268438473
1676,-900,16292,585,-12039,-2514,268438473
1956,-424,15888,-89,-10259,-3161,268438473
3756,-72,14844,-435,-10299,-413,268438473
2744,-932,15256,534,-8329,805,268438473
3460,-804,15876,588,-7370,483,268438473
4248,-652,15740,687,-9445,555,268438473
4872,-336,15436,1354,-11654,924,268438473
5024,-744,15512,2029,-14906,1757,268438473
6432,52,14592,2280,-14998,1743,268438473
7236,-584,15188,2904,-13149,2331,268438473
7116,124,14720,1247,-10369,1702,268438473
7832,-924,15872,-87,-13058,1625,268438473
8112,-16,14464,-1185,-13011,315,268438473
8556,-828,13356,-2076,-13325,1249,268438473
9356,-616,12340,-1607,-14074,2503,268438473
9848,-524,12264,-1356,-17627,4005,268438473
11276,-432,12556,-722,-15400,1414,268438473
11604,-504,12680,-2276,-14541,806,268438473
12272,-704,11136,-1964,-11593,818,268438473
12984,-1052,10252,-2066,-11099,929,268438473
12988,-896,9944,-2017,-12439,1406,268438473
13500,-1328,9460,-1924,-14137,1155,268438473
13408,-1504,8628,-2360,-13213,1154,268438473
14356,-1624,8280,-1944,-11149,1474,268438473
14792,-1716,7900,-2081,-9554,1822,268438473
14808,-1948,7464,-2323,-10084,1942,268438473
14640,-1968,6344,-1836,-9716,1816,268438473
15048,-2060,6360,-1153,-8683,1574,268438473
15792,-2064,6324,-1464,-9564,1586,268438473
15356,-2228,5432,-2051,-10115,2026,268438473
15352,-2308,5216,-1776,-9794,1443,268438473
15940,-2728,4416,-2283,-9808,1615,268438473
16148,-2460,3712,-2421,-9985,1949,268438473
16476,-2384,3508,-2233,-10808,2053,268438473
16508,-2748,2908,-2141,-10678,2651,268438473
15904,-2848,2428,-2184,-10979,2933,268438473
15748,-3360,1720,-2187,-10974,2358,268438473
16184,-3404,704,-2225,-10091,2083,268438473
16024,-3524,1044,-2009,-9983,1959,268438473
16440,-3680,260,-3453,-11420,1339,268438473
16772,-3552,-488,-4130,-11616,1771,268438473
16596,-3680,-1280,-3760,-11589,1619,268438473
16540,-3668,-2240,-4025,-12106,1243,268438473
16384,-3792,-3008,-3329,-11304,1542,268438473
15780,-4232,-3828,-2691,-10665,2283,268438473
16252,-3720,-3856,-3016,-12359,1577,268438473
15648,-4104,-4900,-2930,-13344,1498,268438473
15688,-4196,-4616,-3134,-12605,935,268438473
15408,-3968,-6028,-3265,-11921,651,268438473
15132,-3836,-6552,-3732,-9893,1119,268438473
15036,-3944,-7488,-1691,-7024,1528,268438473
15196,-3504,-7632,-1758,-8099,1190,268438473
14120,-4156,-9076,-3911,-12252,536,268438473
14304,-3804,-8940,-3484,-10674,-6,268438473
14268,-3576,-9320,-1771,-7766,360,268438473
14084,-3692,-9468,-2273,-7783,245,268438473
13900,-4020,-10232,-2180,-7354,773,268438473
13352,-3796,-10988,-2155,-6282,1123,268438473
12956,-3720,-10952,-1126,-4409,1222,268438473
13348,-3664,-10624,-1165,-5609,522,268438473
13244,-3756,-11416,-2693,-8330,632,268438473
12288,-3976,-11196,-2172,-6636,488,268438473
11668,-3788,-12072,-1380,-2929,689,268438473
12008,-3504,-13012,-502,743,237,268438473
12648,-3544,-12896,1732,3776,273,268438473
12776,-3796,-12364,2974,6864,315,268438473
13404,-4300,-11708,2983,8352,205,268438473
13544,-4336,-10816,3573,11210,1015,268438473
13964,-4728,-9964,3763,11598,151,268438473
13720,-4824,-9224,3261,12063,211,268438473
14280,-4488,-9116,2841,11321,-498,268438473
14252,-4368,-8552,3375,11679,-1428,268438473
14580,-4520,-7828,3934,13971,-1932,268438473
15684,-4372,-7052,4706,13848,-1394,268438473
15712,-4268,-5640,4216,11553,-820,268438473
15540,-4588,-5280,4003,11426,-1165,268438473
15540,-4276,-4500,4132,14640,-1263,268438473
15572,-4364,-3344,4870,13970,-1602,268438473
15644,-4128,-3208,3925,11763,-2086,268438473
15896,-4184,-2132,4219,14454,-2102,268438473
17120,-4008,-984,5401,15028,-2034,268438473
17072,-4280,92,3591,11484,-1287,268438473
16340,-4104,760,1768,10020,-1271,268438473
16584,-4000,916,2073,10986,-1621,268438473
16716,-3724,1148,2019,8142,-1874,268438473
16468,-3844,1416,1818,7222,-1486,268438473
15800,-3652,1472,1827,8661,-1736,268438473
16260,-3444,2512,2318,9528,-1809,268438473
16064,-3424,2964,2714,9168,-1533,268438473
16140,-3264,3780,2528,8367,-1407,268438473
15592,-3268,4040,2497,7432,-1564,268438473
15312,-3192,4152,2509,8403,-1905,268438473
15784,-3072,4572,3024,10335,-1873,268438473
15600,-2940,5804,2949,8331,-1538,268438473
15288,-2504,5980,2588,7404,-1653,268438473
15068,-2392,6096,3035,9656,-1257,268438473
14848,-2348,6844,3173,8954,-1387,268438473
14736,-2376,7180,2743,7382,-1510,268438473
14008,-1984,6996,2836,8903,-1416,268438473
14152,-1952,8004,3684,11909,-1331,268438473
14096,-2000,9408,3243,10347,-595,268438473
13436,-1712,9540,2687,8429,-904,268438473
13520,-1684,9868,2416,9166,-591,268438473
13116,-1432,10060,2192,9273,-195,268438473
12476,-1172,10444,2517,9000,-75,268438473
11924,-1072,10680,2646,10886,-206,268438473
11680,-1160,11568,2517,11541,-484,268438473
11508,-1248,12360,1900,8740,-635,268438473
11116,-1032,12200,1217,8931,-356,268438473
9904,-872,12216,1250,11745,-205,268438473
9760,-844,12368,2014,14942,-603,268438473
9548,-996,13148,2212,14388,-523,268438473
8932,-612,13724,1642,14717,-291,268438473
8256,-524,14096,1780,12789,-189,268438473
6836,-280,14348,1990,15833,-107,268438473
5904,-164,15016,2288,21250,-651,268438473
5824,-504,16072,1808,19019,-884,268438473
5280,-192,15956,666,13521,-521,268438473
3584,-188,15600,410,12145,-153,268438473
2236,104,15300,983,15505,-745,268438473
1836,56,16036,1473,20107,-1168,268438473
1636,-224,16996,683,17984,-1623,268438473
1044,8,16956,-164,13217,-1314,268438473
-56,264,15924,-461,11740,-802,268438473
-1388,-4,15804,6,13238,-536,268438473
-2204,28,15500,30,16765,-719,268438473
-2860,48,15828,-161,19262,-833,268438473
-3248,156,15896,-382,18810,-525,268438473
-4108,-96,15744,-436,14896,-236,268438473
-4720,-56,15184,-194,10706,-9,268438473
-5544,140,14852,28,10191,379,268438473
-6296,40,14640,-192,13175,529,268438473
-6716,-172,14520,-252,14284,611,268438473
-8092,208,13956,-609,14969,1084,268438473
-8768,-144,13880,-69,12977,633,268438473
-9084,76,13408,-290,13023,303,268438473
-9252,8,12936,-359,12492,276,268438473
-10156,20,12132,-321,12165,821,268438473
-10688,52,12032,148,12724,875,268438473
-11372,64,11404,-121,12085,323,268438473
-11352,368,11072,-452,13382,335,268438473
-11712,96,10532,-506,13090,419,268438473
-12496,368,9544,-915,13448,634,268438473
-12800,52,8836,-43,13712,606,268438473
-13596,40,8912,65,11571,-84,268438473
-13360,168,8148,-195,10367,-676,268438473
-13400,32,7264,-865,12297,-468,268438473
-12972,288,6948,-899,12984,265,268438473
-13832,112,6272,-920,13439,855,268438473
-14684,124,5760,-983,11963,464,268438473
-14816,252,5088,-510,10612,200,268438473
-15136,44,4440,-815,10951,270,268438473
-15504,-160,3888,-1031,9659,-37,268438473
-15208,-16,3160,-616,11756,252,268438473
-15100,-252,3520,-797,9588,251,268438473
-15416,-284,1792,-438,8011,105,268438473
-15384,-204,1496,57,9434,656,268438473
-15232,-364,1192,28,8701,1243,268438473
-15560,52,960,-412,7635,1210,268438473
-15476,276,496,-206,6958,1252,268438473
-15640,224,164,-324,7101,1636,268438473
-15900,396,-640,-255,7669,1835,268438473
-16220,56,-1072,-237,9316,1492,268438473
-16160,760,-1404,-704,8812,1173,268438473
-15604,352,-2572,-586,7882,573,268438473
-15412,284,-2364,-186,8126,1308,268438473
-15648,668,-4036,-617,7005,1438,268438473
-15096,800,-4700,33,8871,1397,268438473
-15552,1068,-3828,61,8778,1812,268438473
-16020,1084,-4176,13,7579,970,268438473
-15664,1328,-4832,-119,7929,426,268438473
-15756,1112,-5228,-140,6699,-431,268438473
-16020,1104,-5988,-525,6434,-1607,268438473
-15428,932,-5820,-181,6906,-2552,268438473
-13464,864,-5932,1084,3288,-2216,268438473
-13520,720,-5812,1538,562,-267,268438473
-13904,800,-4976,1925,-2783,489,268438473
-14768,700,-4580,1196,-3227,921,268438473
-15124,796,-4248,432,-4085,-11,268438473
-15620,804,-4732,-2,-4264,-302,268438473
-15556,704,-4772,-192,-5924,-1208,268438473
-14984,484,-4840,-370,-6384,-853,268438473
-15124,288,-4872,-333,-6736,-197,268438473
-15940,256,-4156,-370,-7242,-324,268438473
-16160,324,-4360,-716,-8773,-624,268438473
-16444,504,-3440,72,-10351,-696,268438473
-16412,156,-3404,371,-9912,-1450,268438473
-16608,592,-2284,278,-8171,-970,268438473
-16828,72,-1852,288,-10298,-2374,268438473
-15332,16,-584,-169,-11442,-3200,268438473
-15952,-12,-1228,-1278,-9749,-1799,268438473
-15820,-488,-24,-672,-9873,-2279,268438473
-15336,-200,936,-748,-10293,-2987,268438473
-15848,-552,284,-467,-11666,-2760,268438473
-15472,-708,1392,87,-9095,-2377,268438473
-15848,-728,2072,-387,-10716,-2076,268438473
-15600,-812,2040,-125,-11074,-2558,268438473
-14664,-1052,2396,154,-9579,-1503,268438473
-14808,-856,2700,722,-7519,-402,268438473
-14368,-852,3712,2141,-7652,-68,268438473
-14496,-560,4352,2363,-10597,463,268438473
-15152,-476,4336,3960,-10240,765,268438473
-14980,-904,6372,3615,-8888,601,268438473
-15004,-1164,7096,2399,-12623,-781,268438473
-14492,-840,6920,2198,-16372,-2007,268438473
-14104,-708,6684,2263,-13882,-1333,268438473
-13260,-1176,8296,1638,-8627,-441,268438473
-13112,-1096,9012,693,-7926,-741,268438473
-12748,-844,8732,70,-8745,-1042,268438473
-12832,-576,8904,810,-9433,-1137,268438473
-12348,-952,9572,1607,-9940,-1261,268438473
-12068,-828,10260,1096,-9689,-1170,268438473
-11652,-784,10464,654,-9157,-1087,268438473
-10944,-696,10396,1005,-8906,-915,268438473
-10396,-852,11080,877,-8788,-439,268438473
-10160,-996,11448,884,-10337,-433,268438473
-9732,-740,11684,1165,-11811,-227,268438473
-9488,-48,12128,2507,-13161,614,268438473
-9036,-484,13104,2027,-12935,199,268438473
-8824,-616,13400,1778,-13343,441,268438473
-8236,-492,13716,1688,-11778,187,268438473
-7468,-408,14392,1565,-10998,878,268438473
-6824,-20,14860,1420,-13552,654,268438473
-5932,76,14616,1378,-15055,634,268438473
-5368,-220,14916,1865,-14634,910,268438473
-4440,-148,14704,2287,-14302,1635,268438473
-4320,296,15636,2870,-11623,2673,268438473
-3608,284,16008,2825,-13306,2006,268438473
-3152,1056,16160,2154,-12592,1798,268438473
-2348,776,16396,1507,-10927,1842,268438473
-1808,704,16444,536,-11741,1531,268438473
-1144,932,16124,168,-11448,1276,268438473
-132,1304,15492,512,-11608,1171,268438473
396,984,15156,816,-10897,1683,268438473
536,932,15704,1584,-11814,1796,268438473
1056,1120,16276,1937,-11001,1617,268438473
1308,1400,16016,1089,-9930,1380,268438473
2116,1128,16600,66,-8457,1712,268438473
2288,1316,16132,-566,-8910,1828,268438473
3108,1256,16008,-1130,-12224,661,268438473
4084,904,15788,-2286,-14017,60,268438473
5676,792,15700,-1609,-12593,902,268438473
5368,716,14752,-1099,-12271,2117,268438473
5720,832,14784,339,-9830,2240,268438473
6508,848,14844,1455,-9757,2135,268438473
6240,532,15376,-51,-9308,1610,268438473
7240,604,15292,-533,-8921,1036,268438473
8072,680,15108,-756,-11172,1759,268438473
8168,944,14608,-1008,-14129,1925,268438473
8792,488,13640,-1012,-13254,1367,268438473
8980,588,12912,-339,-10733,1606,268438473
9528,528,12896,515,-8669,1128,268438473
10672,708,12352,342,-12268,438,268438473
10828,424,12452,-408,-13260,385,268438473
11912,452,12164,-1104,-15281,-137,268438473
12388,220,10612,-1348,-16344,306,268438473
12564,456,10484,-588,-14088,1620,268438473
12508,96,10108,-767,-12372,1639,268438473
13256,-176,9292,-714,-11157,1113,268438473
14076,-188,8848,-96,-9198,1948,268438473
14648,48,8692,-592,-10603,2144,268438473
14572,-296,8796,-810,-13129,1986,268438473
14516,-328,7856,-1846,-15252,1423,268438473
15196,-112,6892,-2292,-14931,1091,268438473
14544,-996,5600,-2208,-11565,1222,268438473
15212,-716,4632,-1174,-8508,1172,268438473
16244,-252,4188,-43,-9059,743,268438473
15632,-812,4436,338,-11343,901,268438473
15972,-900,4080,761,-11118,198,268438473
16512,-688,3796,-135,-10356,9,268438473
16172,-1244,3504,-638,-10824,294,268438473
17060,-740,1600,-963,-10669,-697,268438473
16244,-676,1940,-1027,-11405,-1740,268438473
16648,-572,1180,-1090,-11370,-797,268438473
17384,-584,508,-964,-12129,-322,268438473
17404,-1036,-796,-748,-8002,540,268438473
17520,-208,-1124,894,-4076,1713,268438473
17340,12,-1104,1666,-6523,478,268438473
17132,-876,-1184,1624,-7899,722,268438473
17060,-820,-968,1551,-6907,1470,268438473
16896,-724,-1284,529,-7897,1846,268438473
16112,-1076,-2364,-57,-8598,1206,268438473
15732,-1156,-2800,196,-4555,951,268438473
15984,-1244,-2904,515,-544,416,268438473
16468,-1412,-3276,195,622,153,268438473
16808,-1288,-3336,765,4499,575,268438473
17408,-1464,-2584,1867,8221,648,268438473
17468,-1460,-1980,1566,8728,574,268438473
16840,-1628,-1788,826,8979,-301,268438473
16344,-1608,-1140,1349,12993,-777,268438473
17264,-1248,-136,1385,13529,-732,268438473
16904,-916,720,849,11481,-1629,268438473
16864,-1204,1476,1352,10734,-1500,268438473
15576,-1524,1340,939,14199,-1663,268438473
16428,-1148,3024,1187,20853,-2543,268438473
17312,-348,4040,1545,15326,-1729,268438473
16636,196,4532,194,9959,-1055,268438473
15580,-600,5548,822,10865,-1183,268438473
15276,-612,5804,536,11115,-1997,268438473
14920,-368,5624,-687,11782,-1806,268438473
15056,-428,7428,825,14304,228,268438473
15392,196,7736,951,9633,68,268438473
13736,-96,7992,-251,7554,-1387,268438473
14300,-120,8752,-20,9530,-2239,268438473
14464,0,8696,-316,7511,-1680,268438473
13448,140,8644,-624,7842,-850,268438473
12680,-24,9804,716,12029,-377,268438473
13320,232,10776,1015,12281,-1033,268438473
13492,400,10664,-250,7809,-1701,268438473
12328,280,10720,-301,5286,-1672,268438473
11888,228,10952,240,6743,-2108,268438473
11456,252,11192,566,10039,-1771,268438473
11660,300,12220,820,11733,-1884,268438473
11840,564,12204,492,8317,-2009,268438473
10924,768,12500,519,6658,-1283,268438473
10296,536,12904,920,7346,-1205,268438473
9460,636,12840,509,8358,-2082,268438473
10172,668,13812,567,9620,-1947,268438473
9904,944,13660,-75,6298,-1218,268438473
8708,900,13360,-246,5723,-910,268438473
7936,992,13344,167,9846,-1411,268438473
8228,872,14008,511,12579,-2324,268438473
7936,868,14024,98,13754,-2026,268438473
7488,1192,14852,-359,12455,-1442,268438473
5904,1380,14880,486,10911,-1410,268438473
5012,1088,14832,661,13996,-1973,268438473
4644,1312,15104,243,15905,-2453,268438473
3968,1140,15412,101,16004,-2424,268438473
3180,1416,16128,-94,15820,-2222,268438473
2060,1396,16208,217,15407,-1888,268438473
1052,1400,16448,190,16445,-2051,268438473
-152,1104,16372,-114,18044,-2495,268438473
-628,1436,16656,-638,20642,-2416,268438473
-1584,1164,16864,-1211,18709,-2542,268438473
-1672,1532,16316,-881,14647,-1885,268438473
-2492,1528,16184,-985,11729,-826,268438473
-3796,1292,15592,-824,9810,-490,268438473
-4616,1208,15276,-552,11985,-277,268438473
-5300,1148,15148,-687,14551,-591,268438473
-6092,1152,14884,-1336,14730,-703,268438473
-6484,1008,14712,-1053,12592,-1341,268438473
-7572,904,14088,-1278,14296,-914,268438473
-8240,668,14104,-1936,17432,-1187,268438473
-8400,736,13512,-2691,16948,-1119,268438473
-9636,532,12496,-2896,16427,-379,268438473
-10728,472,11672,-2553,17034,-291,268438473
-10884,140,11616,-1729,16314,-745,268438473
-11360,128,10980,-2086,14631,-1066,268438473
-12792,376,9568,-1863,15366,-1070,268438473
-12372,-936,9424,-2375,16514,-751,268438473
-13060,-288,8740,-1853,16068,-1118,268438473
-12904,-552,7980,-1553,14629,-1082,268438473
-13636,-600,7200,-1538,13864,-368,268438473
-14360,-764,6640,-1440,14930,112,268438473
-14584,-764,5692,-1785,15297,-63,268438473
-14776,-428,5196,-1402,13906,-141,268438473
-14764,-764,4296,-1079,13764,30,268438473
-14884,-272,3632,-1506,14039,806,268438473
-15112,-772,2732,-963,13634,1443,268438473
-14536,-860,2308,-870,14695,2041,268438473
-14832,-336,1788,-1438,14340,2131,268438473
-15412,-384,440,-1843,14148,2936,268438473
-16216,-40,-388,-1621,12941,2705,268438473
-16112,280,-868,-942,12092,2324,268438473
-15692,16,-1180,-1015,12612,2633,268438473
-15928,228,-1688,-1584,11717,2496,268438473
-15528,644,-2512,-1667,12550,2477,268438473
-16500,552,-4544,-2337,12945,2823,268438473
-16400,692,-5856,-1770,12350,1286,268438473
-15388,652,-6384,-341,11110,930,268438473
-14336,900,-5844,-11,11870,1469,268438473
-14044,1108,-6008,-100,9712,1718,268438473
-14556,1032,-6564,569,9148,2037,268438473
-15032,1064,-6792,363,8494,1771,268438473
-14992,964,-6596,-294,8766,991,268438473
-14488,1432,-7192,-823,9580,-48,268438473
-13932,1616,-8604,-1384,10872,-149,268438473
-13252,988,-9016,-168,9215,-73,268438473
-12964,1352,-9716,252,8705,322,268438473
-12532,684,-9644,168,7292,567,268438473
-12108,1316,-10152,-1235,8934,2020,268438473
-12756,1296,-9844,-1654,7181,2007,268438473
-13004,1392,-10248,-886,4286,448,268438473
-12736,1740,-10788,-766,2124,307,268438473
-11768,1724,-10584,-322,2163,-170,268438473
-11672,1920,-11380,-756,1913,-15,268438473
-11652,1760,-11956,-824,2811,-332,268438473
-11188,1900,-11560,-1477,4981,177,268438473
-11084,1520,-11944,-1274,5334,620,268438473
-11672,1844,-11828,-1712,5194,984,268438473
-11896,2396,-12416,-2457,5450,593,268438473
-12032,2384,-12488,-2777,7747,609,268438473
-11684,3504,-13352,-3279,7848,328,268438473
-11928,2100,-13100,-3182,7724,149,268438473
-11060,1984,-13732,-2675,5180,-481,268438473
-10424,2828,-14596,-1181,3228,-377,268438473
-10352,3072,-14548,-818,3400,-690,268438473
-8740,3060,-13452,-789,3857,-713,268438473
-8028,2124,-13096,-938,4498,-13,268438473
-9464,2280,-13796,-382,794,-78,268438473
-9368,2284,-13288,-542,779,-682,268438473
-8976,2892,-14772,-1188,423,-861,268438473
-8080,2652,-14160,-571,3130,-166,268438473
-8716,4344,-13960,-1442,2942,-322,268438473
-9188,2416,-14792,44,-1846,-1502,268438473
-9012,2960,-14588,1833,-4513,-1045,268438473
-9760,2400,-13144,2679,-11594,-2597,268438473
-9188,2344,-13852,2315,-16050,-3203,268438473
-9848,2028,-13672,2951,-16423,-3176,268438473
-10636,1900,-12744,3829,-17823,-3248,268438473
-11860,1652,-11372,3062,-16421,-2443,268438473
-12568,1668,-9084,2257,-23498,-3399,268438473
-13808,1544,-9908,3134,-31383,-4013,268438473
-14508,1152,-9648,4202,-23175,-2503,268438473
-13892,84,-5960,2228,-13921,-985,268438473
-14264,528,-4240,297,-18676,-1498,268438473
-16132,492,-4780,2035,-29629,-2599,268438473
-15924,-84,-5068,3325,-25738,-3283,268438473
-15380,-160,-2608,2124,-14822,-958,268438473
-15872,-24,-932,1561,-16775,-1652,268438473
-15868,92,-1036,2115,-21264,-3842,268438473
-16268,184,36,3828,-19884,-3832,268438473
-15688,-500,1716,3166,-14439,-3477,268438473
-15156,-628,2392,1391,-12073,-3862,268438473
-14888,-800,2880,1058,-14048,-4785,268438473
-14236,-768,2956,2306,-17087,-4793,268438473
-14584,-1276,4256,3159,-16291,-3679,268438473
-14264,-2392,5728,2995,-15694,-2749,268438473
-14072,-1504,6836,2013,-14790,-2830,268438473
-13888,-1520,7240,2204,-16679,-2944,268438473
-12860,-1596,7968,2231,-16534,-2716,268438473
-12980,-1632,8984,2717,-16591,-1466,268438473
-12324,-1808,10064,2679,-17707,-1901,268438473
-11164,-1380,10652,2354,-18127,-1426,268438473
-10824,-1496,11076,3317,-18483,-1020,268438473
-10100,-1012,11580,4036,-17056,-187,268438473
-9716,-1156,12936,4143,-18132,369,268438473
-8636,-1176,13412,3148,-18462,166,268438473
-7868,-1036,14304,2358,-18026,88,268438473
-6784,-712,13764,2237,-15725,116,268438473
-5640,-732,14432,2181,-15884,826,268438473
-5424,-888,14912,2059,-16052,1170,268438473
-4816,-412,15400,1852,-14159,1358,268438473
-4172,-988,16116,1445,-14071,1542,268438473
-3236,-316,16176,1220,-15652,1602,268438473
-2652,-32,15796,18,-15226,1725,268438473
-1408,128,15824,-1006,-16994,1045,268438473
-692,-296,15832,-616,-16520,1317,268438473
-248,-40,15756,128,-16207,1102,268438473
552,16,16084,630,-15925,466,268438473
1128,-36,16848,802,-15206,1068,268438473
2040,-288,16552,-71,-17246,884,268438473
3168,-40,15620,-1179,-15749,639,268438473
3656,124,15620,-1251,-14880,544,268438473
4920,-100,15708,-2209,-16888,-361,268438473
5972,-592,14924,-2564,-19039,-615,268438473
5640,-548,14024,-2146,-14632,-195,268438473
7248,-680,14232,-724,-10921,-198,268438473
8112,-804,14424,-209,-11097,111,268438473
8768,-752,14736,-974,-12519,381,268438473
9364,-576,14828,-1503,-13359,389,268438473
9724,-652,14424,-2000,-16076,-429,268438473
10620,-1280,12460,-4319,-17606,-778,268438473
10828,-996,11320,-2346,-12244,256,268438473
11424,-1316,10908,-533,-10245,604,268438473
12032,-1276,10676,-855,-10312,1131,268438473
12528,-680,10932,712,-10592,1145,268438473
13088,-880,11020,971,-13460,133,268438473
13852,-1216,10400,-724,-15057,96,268438473
14452,-1284,9864,-911,-15734,534,268438473
14376,-1324,8732,-99,-13435,1728,268438473
14712,-1224,7068,236,-12211,2613,268438473
14468,-1368,6440,947,-13844,2946,268438473
14720,-1356,5832,1339,-14857,2449,268438473
15440,-1724,6544,2451,-13084,3060,268438473
15432,-2064,5240,1037,-13297,3571,268438473
15344,-1992,4700,-883,-12855,3082,268438473
16564,-1536,4416,435,-11496,2966,268438473
16624,-1980,4112,1094,-11964,3028,268438473
16016,-2808,3760,-540,-13250,3065,268438473
15600,-2856,2580,-2034,-12135,2722,268438473
15628,-2940,1796,-1714,-11447,1685,268438473
15956,-2788,1004,-2476,-11523,785,268438473
16020,-2888,568,-2663,-11503,-258,268438473
17004,-2496,924,-3227,-12016,-654,268438473
17796,-2752,-532,-4313,-15732,-1766,268438473
16468,-2752,-1516,-5106,-15665,-1745,268438473
16696,-2984,-4204,-5000,-10170,-1426,268438473
15940,-2680,-3968,-2541,-6087,286,268438473
16256,-1768,-4512,289,-3458,929,268438473
16040,-2236,-3940,1540,-4173,290,268438473
15820,-2312,-4360,617,-8147,-376,268438473
16384,-2644,-3700,-707,-10458,-416,268438473
15728,-2344,-4320,-46,-13249,1205,268438473
16112,-2508,-5972,-859,-15672,2594,268438473
16564,-3204,-7612,-1845,-11736,2915,268438473
15348,-2616,-7768,-554,-5933,3772,268438473
15100,-2872,-7576,1002,-3266,3623,268438473
14712,-3140,-7816,942,-4804,4158,268438473
15376,-3304,-8080,451,-8164,2857,268438473
15240,-3620,-8812,-276,-11811,-1117,268438473
14636,-4020,-8824,-929,-12109,-2212,268438473
14520,-3832,-9332,-615,-7621,-1394,268438473
14584,-3040,-9764,218,-6379,-288,268438473
13052,-3804,-10592,-297,-9307,-441,268438473
13104,-3324,-10300,-1334,-9335,-963,268438473
12980,-3320,-10892,-848,-5160,-1075,268438473
12564,-3156,-11012,-58,545,-575,268438473
13500,-3072,-11744,826,3892,-947,268438473
14052,-2424,-11652,2348,6594,-998,268438473
13360,-3108,-10720,4014,10565,-1297,268438473
13612,-3780,-10064,4721,12786,-2097,268438473
14692,-2976,-8740,4232,11696,-2277,268438473
15104,-3584,-7768,2872,9565,-2898,268438473
15980,-3868,-8372,1934,12486,-3732,268438473
16072,-3224,-7828,2251,18174,-4178,268438473
15000,-2684,-6256,2032,17028,-2939,268438473
17008,-2664,-6284,1496,21222,-2974,268438473
15600,-2332,-3204,1181,21684,-1201,268438473
16968,-2592,-2320,542,18618,-1423,268438473
16536,-2884,-732,-244,16262,-1694,268438473
16000,-2180,-644,-1012,15462,-1222,268438473
15904,-2052,108,-1182,16244,-543,268438473
16856,-1952,768,-688,16375,-850,268438473
16164,-1948,2284,-161,14630,-488,268438473
16668,-1720,2648,53,14043,-5,268438473
15028,-2684,4396,481,13355,160,268438473
15036,-2376,4264,741,16486,-881,268438473
16428,-2052,5116,775,16307,-1391,268438473
16464,-1768,5832,983,11143,-1297,268438473
15124,-1688,6404,2382,9011,-1889,268438473
14628,-1800,6092,3856,12616,-3102,268438473
14736,-1496,7620,4314,14252,-1290,268438473
14712,-1336,7888,4196,11588,-653,268438473
13988,-548,7964,3619,10088,-1124,268438473
13912,-1216,9016,2660,9136,-1451,268438473
13108,-1008,9880,2108,8540,-1417,268438473
13116,-1112,10636,1919,8854,-1092,268438473
12848,-948,10264,2101,9157,-550,268438473
12660,-732,10864,2069,10066,305,268438473
12448,292,11156,1758,8667,-677,268438473
12208,-244,12352,1263,7210,-2262,268438473
11600,16,11560,352,5468,-2497,268438473
11100,-252,10924,-169,7739,-1563,268438473
10508,-368,11152,-527,9807,-1055,268438473
10320,-28,12504,46,12120,-1184,268438473
10540,-176,14128,573,12282,-1444,268438473
10008,248,14152,-117,8360,-1530,268438473
9328,216,14600,-702,7438,-610,268438473
8500,4,14376,-970,7076,-1639,268438473
7680,20,13596,-1354,9710,-2090,268438473
8172,8,13924,-1560,10989,-2188,268438473
8256,268,13940,-875,6931,-1453,268438473
6896,36,14036,130,6413,-722,268438473
5868,-208,14800,1196,9108,-1287,268438473
5364,24,15420,685,12732,-1820,268438473
5780,112,16160,-56,14369,-1581,268438473
5528,260,16360,-135,9782,-1451,268438473
4388,264,15696,-4,6142,-1463,268438473
3312,-84,15348,614,9089,-1308,268438473
2916,108,15376,493,14117,-1974,268438473
3164,416,16204,899,16950,-2176,268438473
3028,548,16556,785,14974,-1603,268438473
1864,708,16260,513,11887,-432,268438473
340,424,17004,295,10901,35,268438473
-824,336,16956,-276,10926,-913,268438473
-1452,300,16020,-882,13567,-1485,268438473
-1136,248,15716,-986,14632,-1815,268438473
-1392,92,15468,-807,13403,-1311,268438473
-2484,308,15080,-452,11387,-518,268438473
-3760,460,15952,356,11276,-348,268438473
-4348,348,15556,-25,10994,-497,268438473
-4580,284,15680,-147,10051,-548,268438473
-4980,568,14980,-447,8693,-406,268438473
-5596,252,14576,-354,8996,-391,268438473
-6340,-4,14476,-282,12394,-322,268438473
-6492,-68,14456,35,12776,-440,268438473
-7104,-100,13796,199,12020,-189,268438473
-8172,180,13588,442,12935,193,268438473
-9104,260,13888,472,13545,-176,268438473
-9472,84,13520,-228,15313,-822,268438473
-9528,208,13012,-874,15888,-757,268438473
-9764,44,12280,-1112,12481,-588,268438473
-10608,-12,11264,-787,10814,-627,268438473
-10996,-300,10572,-343,11313,-547,268438473
-11576,-332,10424,-586,12903,-218,268438473
-11852,-352,9500,-1317,13420,-158,268438473
-12588,-252,9152,-1251,13595,-207,268438473
-13288,-184,8580,-1463,13133,-411,268438473
-13928,-368,8144,-1405,13072,-468,268438473
-13600,-224,7668,-1382,12306,-748,268438473
-14244,-44,6668,-1755,10781,-624,268438473
-14452,-368,6008,-1720,13059,-257,268438473
-14244,-560,5280,-1934,12865,-211,268438473
-14776,-624,4864,-1498,12870,-46,268438473
-15236,-188,4260,-2017,13562,387,268438473
-15796,-432,3496,-1886,11756,169,268438473
-15816,-296,2720,-1374,11683,184,268438473
-15356,-616,2044,-808,12238,1083,268438473
-15760,-676,1496,-305,12092,726,268438473
-15500,-420,1216,-1309,10863,983,268438473
-15596,-328,112,-1467,11406,536,268438473
-15532,-356,-792,-1044,11543,521,268438473
-14960,-788,-1912,-358,11634,941,268438473
-16004,-420,-1648,-927,8668,298,268438473
-16156,-156,-3236,-595,9426,-108,268438473
-14836,-1108,-3196,-372,8823,38,268438473
-14940,-236,-3764,556,9554,917,268438473
-15068,-840,-3168,741,8237,1483,268438473
-15392,-448,-3828,755,5424,783,268438473
-15420,-164,-4544,-115,4665,866,268438473
-15000,-128,-3632,-18,2791,584,268438473
-15360,-176,-4624,-506,-1287,379,268438473
-16132,116,-5416,-485,-3695,341,268438473
-15736,-348,-4888,726,-5130,-300,268438473
-15084,124,-4264,806,-7345,8,268438473
-15140,-412,-3864,570,-9760,457,268438473
-15600,-220,-3264,1643,-13351,528,268438473
-16276,-476,-1568,2385,-16092,559,268438473
-16704,32,836,2909,-25873,192,268438473
-17148,188,-64,2371,-27074,-1013,268438473
-15232,468,1044,2521,-18150,-978,268438473
-15472,-84,2320,1707,-17246,28,268438473
-16124,-236,3320,2117,-17486,-724,268438473
-15224,-428,4648,1359,-16099,-1393,268438473
-14656,-188,5012,-886,-12059,-1097,268438473
-14576,-432,4480,-842,-7861,-849,268438473
-14264,-312,5848,-171,-6333,-794,268438473
-14024,-316,6312,-472,-9835,-1145,268438473
-13924,-116,6364,-211,-12172,-1001,268438473
-13656,-396,7328,429,-10412,-975,268438473
-12924,-640,8048,-81,-10814,-625,268438473
-12400,-340,8964,-225,-15977,-405,268438473
-12712,-344,8524,-186,-11362,382,268438473
-12452,-648,10048,137,-3643,366,268438473
-11972,-536,10760,-261,-5894,-905,268438473
-11288,-608,10216,-717,-12345,-833,268438473
-12348,-668,10076,272,-15934,-532,268438473
-12200,-876,11004,605,-7481,-272,268438473
-10644,-1016,12332,-723,-3296,-110,268438473
-10168,-968,11388,-1552,-8171,-327,268438473
-10092,-696,10952,-240,-13569,-30,268438473
-9796,-872,12528,928,-18289,-24,268438473
-8988,-416,13144,873,-17362,-51,268438473
-7944,-1128,15400,-535,-14966,-130,268438473
-6900,-800,14768,-576,-13275,-97,268438473
-6024,-540,14052,-564,-17617,64,268438473
-6020,-496,14268,597,-18765,256,268438473
-4556,-784,15076,1838,-18301,617,268438473
-3840,-648,15816,1899,-19857,1688,268438473
-3160,-340,16392,1686,-21737,1388,268438473
-2736,-116,16320,1466,-21948,1053,268438473
-1212,-168,16836,939,-20664,622,268438473
408,-548,16340,-24,-17204,412,268438473
1504,-144,15964,-170,-13976,888,268438473
2256,132,15840,104,-14713,1462,268438473
2484,76,15620,503,-16326,1114,268438473
3196,-280,15972,1011,-14019,992,268438473
4380,-108,16080,429,-14484,874,268438473
4792,288,15136,-419,-14583,1046,268438473
5788,-160,15448,425,-14247,749,268438473
6604,-296,15176,253,-12040,1257,268438473
6700,60,14680,-537,-11668,1846,268438473
7112,-424,14264,-144,-10923,957,268438473
8208,-532,14100,-93,-11874,1005,268438473
9404,-400,14204,-252,-14097,1363,268438473
8892,-176,13376,-821,-14489,1151,268438473
9664,-384,12940,-674,-11160,570,268438473
11100,-500,12620,-339,-10988,1082,268438473
11844,-540,12336,-600,-13126,2368,268438473
11020,-156,11600,-1090,-14790,2860,268438473
11260,-900,11412,-1504,-15704,247,268438473
12844,-1216,10252,-1236,-14022,509,268438473
14336,-944,9904,-316,-15074,1955,268438473
14144,-836,9760,153,-16759,3064,268438473
14056,-1000,9412,128,-14531,3026,268438473
14556,-1288,8448,-704,-16872,2330,268438473
15072,-1368,7376,-1256,-18744,1999,268438473
15308,-1372,6320,-910,-18699,2687,268438473
14968,-1700,5328,-1153,-18604,2846,268438473
14988,-1952,4364,-1154,-15479,2125,268438473
15544,-2120,3744,-924,-12206,1772,268438473
15540,-2296,3732,-1373,-13930,1416,268438473
16416,-2376,2608,-2580,-15417,1110,268438473
17168,-1876,1436,-2773,-15508,1456,268438473
17084,-2152,-48,-3336,-16794,1945,268438473
16120,-2164,-1216,-3692,-16573,1939,268438473
16428,-2444,-1372,-3663,-15460,1521,268438473
16240,-3072,-2228,-3698,-14403,1635,268438473
16484,-2760,-3808,-4150,-15491,1665,268438473
17060,-2508,-4012,-3066,-13755,1903,268438473
16804,-2796,-4976,-2641,-13864,2026,268438473
16072,-3340,-5964,-4050,-14161,2449,268438473
15984,-2324,-6536,-6109,-16555,1800,268438473
15908,-2516,-7732,-4560,-16996,1296,268438473
15360,-2884,-8992,-4106,-18753,1589,268438473
14292,-2560,-9836,-3751,-18160,1966,268438473
13440,-2740,-10784,-2056,-15635,1767,268438473
12980,-2916,-10940,-648,-13081,980,268438473
13040,-3220,-10580,-161,-11458,729,268438473
13540,-3148,-11432,-1441,-13337,1055,268438473
12272,-3440,-11848,-2420,-13319,2181,268438473
11980,-2764,-12324,-3600,-14003,2836,268438473
10328,-3920,-14088,-3198,-15147,1381,268438473
9820,-2848,-14412,-2634,-13234,778,268438473
9388,-2700,-13932,-2848,-13037,-410,268438473
9768,-2380,-13892,-2998,-11042,-1323,268438473
9464,-2700,-14648,-2915,-11758,-1168,268438473
8244,-2288,-16364,-3912,-14173,-1456,268438473
6984,-1756,-15796,-3336,-11354,-1544,268438473
7720,-1040,-17124,-1136,-6219,-2300,268438473
7708,-1444,-16924,1771,-3213,-1689,268438473
6840,-2044,-16132,2591,-1204,-912,268438473
5900,-2340,-15112,1613,-430,-622,268438473
6392,-2692,-14904,-151,-2198,-1417,268438473
6400,-2464,-15928,-1882,-2376,-1192,268438473
7112,-1548,-16680,-1457,-76,-712,268438473
7772,-1328,-16796,-499,1924,-360,268438473
7592,-1572,-16800,-11,3539,321,268438473
7204,-1400,-16236,654,6881,-134,268438473
7252,-1752,-16140,976,9742,-775,268438473
7664,-2184,-15104,954,8563,-2187,268438473
8692,-2032,-15448,133,9061,-2443,268438473
9112,-1888,-15504,428,13035,-4019,268438473
10140,-2036,-15772,771,14809,-4418,268438473
10376,-1632,-15212,1382,20397,-4371,268438473
12028,-1096,-14324,2816,26679,-5243,268438473
11392,0,-11948,4009,20855,-4784,268438473
13440,-1744,-11608,2983,16618,-4399,268438473
13812,-1400,-10132,2756,16453,-4207,268438473
14492,-1296,-9624,2387,17077,-3657,268438473
14868,-600,-8764,2280,14418,-3395,268438473
14944,-632,-8656,1676,11505,-3118,268438473
15740,-432,-8424,1659,12232,-3303,268438473
15264,-676,-7036,1414,14424,-2982,268438473
16092,-516,-6428,738,14355,-2402,268438473
15172,-504,-6072,819,11907,-2659,268438473
15992,-332,-5208,678,13991,-3012,268438473
17288,-16,-3900,785,16272,-2450,268438473
17072,448,-3112,370,9950,-1426,268438473
16544,200,-3088,-51,8314,-1866,268438473
16832,520,-2376,-443,10824,-2105,268438473
17060,140,-1584,-637,11561,-1610,268438473
16076,180,-1472,-511,7562,-1689,268438473
15760,480,-1524,377,10238,-2239,268438473
16280,264,-336,748,15664,-2808,268438473
17612,904,1404,239,14626,-2909,268438473
17100,1360,1280,1034,8549,-2415,268438473
15832,1252,1920,1197,13442,-2452,268438473
17256,1164,3956,355,17418,-2549,268438473
17432,1212,3740,389,11608,-2499,268438473
15948,1084,4104,241,10409,-1533,268438473
14880,1308,4744,-130,13876,-2447,268438473
16712,1596,6276,-409,15969,-2258,268438473
16476,2380,6624,184,7808,-647,268438473
14924,2364,6712,1502,6066,-729,268438473
13956,1568,7520,703,10596,-1166,268438473
14052,1504,7804,-1587,16846,-1696,268438473
14740,2272,7968,-1340,14188,-1330,268438473
13468,1996,7912,271,10364,-772,268438473
12176,2040,8876,1036,11814,-1126,268438473
11680,1952,10132,250,16647,-1776,268438473
12348,2280,11344,-1353,20605,-1735,268438473
11672,2472,11796,-1459,20517,-1383,268438473
10516,2776,12348,-854,19670,-1216,268438473
9120,2464,13272,-589,19454,-1592,268438473
8372,2000,14020,-1344,21475,-1994,268438473
7652,1680,14148,-2137,22024,-1714,268438473
6828,2212,13712,-1860,22170,-1147,268438473
5564,2512,14536,-794,21939,-1132,268438473
4300,1888,15576,79,21597,-1239,268438473
3032,2008,16724,-116,20282,-1194,268438473
1528,1660,16804,-1272,19919,-896,268438473
-20,1896,16584,-2070,24563,-1419,268438473
60,1832,16544,-2800,23363,-1892,268438473
-936,2052,15904,-2881,22300,-1041,268438473
-2916,1736,15236,-2675,21561,-854,268438473
-3964,1500,15088,-2427,23551,-137,268438473
-5176,1252,14408,-2679,27088,1069,268438473
-6376,1008,15732,-1355,30032,3926,268438473
-7736,1532,14376,-1516,26280,5999,268438473
-9856,1716,12464,-893,23156,5184,268438473
-9876,1656,12132,139,25292,2806,268438473
-10664,1588,12244,-428,18122,-702,268438473
-11416,1160,10296,-1940,16601,-1078,268438473
-11736,1700,10132,-1447,19943,-685,268438473
-12780,1592,9360,-1176,15947,-438,268438473
-13748,1492,8432,-1374,17327,-1160,268438473
-13680,1432,8300,-1751,14390,-1403,268438473
-14028,1152,6788,-1954,11619,-1286,268438473
-14192,796,5856,-1528,12520,-1676,268438473
-14336,788,5652,-1249,11644,-1513,268438473
-14684,452,4828,-1172,9337,-1360,268438473
-14660,428,3868,-616,9251,-1165,268438473
-15040,636,3704,-3,10677,-815,268438473
-15388,412,3264,400,9118,-870,268438473
-15240,552,2412,256,10034,-588,268438473
-15508,332,2020,733,11631,-379,268438473
-15576,500,816,1197,12106,-233,268438473
-15236,180,1416,1736,12939,-389,268438473
-14948,404,336,1246,12527,289,268438473
-15596,56,-528,1565,11878,481,268438473
-15436,236,-1100,1755,10575,770,268438473
-15944,408,-1072,1501,9930,641,268438473
-16184,856,-1856,650,8419,178,268438473
-15904,444,-1932,299,8834,118,268438473
-15984,444,-2980,-136,6417,-175,268438473
-15960,692,-3440,45,4421,91,268438473
-15968,128,-3528,327,4104,-31,268438473
-15316,576,-3120,-122,4447,-269,268438473
-14960,764,-3204,-839,1511,105,268438473
-15584,772,-3940,-958,-725,383,268438473
-15800,712,-4060,-67,-3905,313,268438473
-16016,616,-3684,192,-7883,-100,268438473
-15804,744,-3928,423,-11810,-370,268438473
-15752,644,-3256,1113,-13943,-461,268438473
-15648,816,-1972,1486,-18089,-468,268438473
-15864,844,-1032,1259,-19184,-124,268438473
-16068,868,612,1502,-20040,165,268438473
-15756,368,1448,1011,-14663,-226,268438473
-15192,380,2864,1466,-14913,-489,268438473
-15796,628,3236,603,-15204,-508,268438473
-15108,136,4340,801,-15868,-1201,268438473
-14476,564,6008,330,-20108,-994,268438473
-14596,368,4932,-578,-18962,-1156,268438473
-13944,172,5992,-92,-13734,-1175,268438473
-13280,196,8156,-354,-14762,-1190,268438473
-12464,148,7876,-459,-20760,-1012,268438473
-12668,172,8136,1078,-24587,353,268438473
-12968,4,8716,1157,-9529,123,268438473
-11000,24,11388,-225,-2896,-578,268438473
-10816,232,11064,-1724,-6905,-184,268438473
-11004,296,10188,-1503,-13290,-601,268438473
-10192,292,10660,215,-17543,35,268438473
-10832,-148,11512,960,-11888,900,268438473
-10360,36,12940,-89,-6771,202,268438473
-9432,292,13420,-1354,-6273,-202,268438473
-8900,92,12772,-1428,-9347,15,268438473
-8736,404,13172,-1176,-13085,63,268438473
-8428,-212,13776,-953,-12273,309,268438473
-7752,-216,14272,-1450,-9247,315,268438473
-7124,160,13528,-2342,-9167,260,268438473
-6600,-188,14424,-2641,-7006,596,268438473
-5972,-328,13944,-2008,-6342,979,268438473
-5932,-576,14076,-1801,-5864,1597,268438473
-6660,-796,14240,-1726,-6123,2203,268438473
-5876,36,14560,-1310,-6018,1447,268438473
-4852,-364,14804,-2065,-8702,56,268438473
-4640,-756,15216,-2999,-9954,461,268438473
-4444,-640,15244,-2751,-9641,704,268438473
-3880,-868,15436,-1958,-8546,309,268438473
-3156,-1140,15472,-1905,-9838,-12,268438473
-2400,-1156,15812,-2024,-10806,271,268438473
-2924,-668,15976,-1038,-10523,141,268438473
-2456,-1052,16768,-467,-7667,-359,268438473
-1752,-1716,17212,-1862,-4992,-139,268438473
-1320,-688,16672,-1929,-5961,-615,268438473
-1420,-1052,16736,-1605,-4983,-972,268438473
-828,-1576,16148,-865,-1927,-161,268438473
-996,-1132,15388,-808,-278,130,268438473
-1204,-1572,15372,-127,3592,779,268438473
-1488,-1608,15660,461,5179,1270,268438473
-2492,-1664,15784,-346,1741,665,268438473
-2096,-1652,15872,-1610,-1553,-227,268438473
-432,-1712,15200,-1925,-3776,-572,268438473
-464,-1864,15156,-630,-3373,297,268438473