ax, ay, az, gx, gy, gz, temp
-540,1244,16012,381,-806,-242,268438473
-460,1312,15728,547,-1493,25,268438473
-604,1244,15856,851,-2436,237,268438473
-528,1588,16124,551,-2745,163,268438473
-480,1376,15704,327,-3376,-8,268438473
-424,1424,15928,514,-4167,-9,268438473
-112,1452,16144,984,-5210,14,268438473
488,1448,16216,1228,-6087,-96,268438473
740,1684,16464,1341,-8793,-329,268438473
1352,2028,15788,738,-9995,-254,268438473
2196,1704,15820,-323,-8677,-92,268438473
2460,1748,16224,-775,-9455,-281,268438473
2768,1708,15976,-760,-9973,-616,268438473
2804,1324,15936,-310,-13300,-531,268438473
3628,1856,14444,-369,-13611,526,268438473
4692,1416,15368,-711,-15718,1528,268438473
6224,1444,14428,-1376,-14958,1459,268438473
6916,1256,13844,-1912,-12062,-284,268438473
7180,1304,14276,-1254,-11722,-2057,268438473
7836,1600,14080,-1267,-13275,-1743,268438473
8348,1264,13696,-1750,-14606,-790,268438473
9248,976,13276,-1560,-14569,-724,268438473
9384,808,13320,-856,-14658,-184,268438473
11080,1012,13348,-483,-15414,-1198,268438473
11632,1532,13324,-369,-15826,-2581,268438473
12256,1804,12904,-1186,-18462,-3024,268438473
14020,1416,11960,-1843,-17349,-2532,268438473
13484,1148,10312,-1571,-17000,-608,268438473
12516,716,9212,-999,-16941,1824,268438473
13256,584,8380,-521,-18508,2856,268438473
14912,1060,8308,-80,-16434,921,268438473
15060,1416,7144,146,-13686,-704,268438473
14060,1240,7476,290,-13355,-777,268438473
16200,1992,7124,121,-13699,1080,268438473
16772,1004,5376,196,-13824,2751,268438473
15372,760,4396,183,-13269,2039,268438473
16032,916,4072,-26,-13791,910,268438473
15296,736,3420,-725,-13323,774,268438473
15836,408,1832,-1167,-14529,260,268438473
16404,700,1364,-702,-16354,420,268438473
16316,1196,1428,-672,-16329,648,268438473
16316,664,-112,-2034,-17024,186,268438473
17084,976,-1900,-2970,-16544,-887,268438473
17400,40,-2712,-2976,-15650,-1652,268438473
15792,452,-2376,-912,-16611,-179,268438473
17196,484,-3368,296,-18727,1474,268438473
17264,580,-5232,-787,-15750,-601,268438473
17096,608,-5516,-3285,-14780,-2386,268438473
16016,964,-6264,-2279,-13937,-778,268438473
15220,84,-6964,-594,-13974,382,268438473
15608,804,-7920,959,-15184,582,268438473
15472,1324,-7852,1336,-13091,-133,268438473
15224,1804,-8708,-30,-13251,-353,268438473
14512,304,-10064,-1499,-13094,578,268438473
12464,168,-10588,924,-14353,1012,268438473
13236,780,-11384,2511,-13779,411,268438473
12524,1268,-11288,2115,-12974,-819,268438473
13216,1760,-11892,1442,-12717,-874,268438473
13752,404,-13108,1478,-11652,98,268438473
12552,348,-13848,1687,-11321,776,268438473
11980,56,-13432,2625,-10610,821,268438473
10952,676,-13472,1894,-11375,1113,268438473
11036,436,-14340,-624,-10551,440,268438473
12012,296,-15256,-879,-8122,-858,268438473
11552,824,-14896,773,-5668,-72,268438473
9968,1108,-13896,1662,-2480,1287,268438473
10104,-332,-14924,1230,-411,300,268438473
10132,280,-15140,210,4752,-1176,268438473
10608,-548,-14876,298,7928,-926,268438473
9980,180,-14300,865,11564,-646,268438473
11236,500,-14012,2149,14045,-1334,268438473
11924,224,-12828,3129,17699,-1385,268438473
11304,672,-11932,3030,19952,-391,268438473
12200,200,-11224,2574,18611,-472,268438473
13376,480,-10096,2807,19984,-1057,268438473
12948,496,-9772,2216,20534,-1051,268438473
17660,-820,-9124,1869,20730,-648,268438473
15548,316,-7784,2229,22042,277,268438473
18184,-124,-6512,3642,22012,-150,268438473
18672,-288,-6556,3369,25109,-758,268438473
18156,-1476,-5780,2987,25515,-1678,268438473
16236,-1328,-4140,3261,25508,-878,268438473
15060,-376,-3204,4064,22713,-1034,268438473
18000,-760,-1528,4077,23208,-3484,268438473
18648,64,1032,3756,27012,-4025,268438473
15748,836,2004,3186,27632,-2576,268438473
14980,816,3084,1353,23583,-829,268438473
15888,620,4500,891,21928,-847,268438473
15140,868,5796,699,24134,-664,268438473
13552,1272,6492,571,23151,-967,268438473
13128,-80,6984,385,20621,-2070,268438473
13040,72,8976,648,20388,-1912,268438473
12376,968,9840,523,21211,-1304,268438473
11040,1788,10724,-193,21180,-1780,268438473
10680,1520,11992,-1247,22368,-3556,268438473
9484,1560,13664,-1376,21613,-4107,268438473
8152,1572,15284,-1210,21176,-3261,268438473
7656,1740,15488,-595,17513,-2100,268438473
8152,1484,15260,-1159,16019,-1923,268438473
7920,1148,15012,-1726,17824,-2756,268438473
5624,1444,15424,-1657,18453,-2315,268438473
4132,1140,15908,-1268,18216,-2320,268438473
3256,1396,16336,-504,18390,-2217,268438473
2916,1592,16580,493,19898,-2563,268438473
1064,1288,16184,451,21458,-2502,268438473
-264,1004,16248,-653,20135,-1868,268438473
-1052,1440,16568,-307,20616,-2726,268438473
-1528,1276,16124,-543,23071,-4229,268438473
-3608,924,15096,-428,23811,-3973,268438473
-5400,1472,14240,-264,20998,-2410,268438473
-5852,568,14392,-902,17044,-3109,268438473
-5124,664,14900,-993,16265,-3190,268438473
-5836,468,15288,-262,19270,-3527,268438473
-8188,-972,13792,-645,20191,-2485,268438473
-8856,232,12764,-987,17433,-515,268438473
-9704,1064,13536,127,17873,-639,268438473
-10420,2680,13272,-675,19886,-2082,268438473
-11752,108,11300,-2925,17007,-3417,268438473
-10928,-436,10460,-3589,14160,-2169,268438473
-9232,-644,10700,-3231,16338,-1229,268438473
-10584,-592,9328,-3577,20471,-535,268438473
-12924,-504,7280,-3752,20472,394,268438473
-13812,-924,6052,-3753,18412,-125,268438473
-14352,-8,4700,-3737,16344,-689,268438473
-14856,-1116,4596,-3447,14855,-1178,268438473
-14976,-1304,3892,-3474,15010,-1779,268438473
-15284,-1052,2628,-3139,13025,-1914,268438473
-15144,-1576,2080,-2685,12994,-3087,268438473
-14164,-1732,2032,-2161,12648,-2467,268438473
-15648,-1880,916,-1546,11986,-1742,268438473
-15332,-2244,964,-726,9994,-1248,268438473
-13728,-1796,1188,-532,11440,-1212,268438473
-16508,-1416,-432,-626,12905,-225,268438473
-17300,-2036,-1744,-513,9336,-185,268438473
-15220,-1848,-2300,-379,7579,-77,268438473
-14908,-1384,-2552,-915,6432,1330,268438473
-16652,-1184,-2208,-89,7748,620,268438473
-16568,-1404,-2740,362,7769,-1839,268438473
-15024,-1916,-2884,-1041,3751,-1975,268438473
-14484,-2728,-3872,-1231,2512,-1042,268438473
-14460,-2644,-3744,-334,393,736,268438473
-15720,-1996,-3812,-386,-908,908,268438473
-16244,-2632,-5144,-1211,-4555,772,268438473
-15556,-2968,-5336,-1053,-10497,2211,268438473
-15032,-2152,-4580,-185,-15858,3913,268438473
-16756,-1132,-3468,-1675,-23403,5427,268438473
-17488,-1816,-2392,-3351,-32000,7266,268438473
-15152,-112,476,-840,-32768,6123,268438473
-15024,44,3872,2966,-23436,2821,268438473
-15332,532,5048,4358,-21654,2660,268438473
-15744,840,6172,3870,-25696,2225,268438473
-14264,328,7280,1975,-29060,1763,268438473
-12200,32,8940,1741,-25431,-24,268438473
-10892,412,10168,2497,-22450,-66,268438473
-10432,1048,11332,3151,-21905,1472,268438473
-10464,1240,12544,2419,-21847,1766,268438473
-10280,1028,13080,1632,-21455,397,268438473
-9796,692,12952,898,-24234,-550,268438473
-6564,396,13456,875,-26101,-1498,268438473
-4580,424,14424,1420,-21681,-1759,268438473
-4452,864,15176,1250,-19824,-490,268438473
-5208,980,14924,761,-21089,1095,268438473
-2584,1108,16100,958,-22832,205,268438473
-924,696,16124,1076,-20065,390,268438473
-880,920,15020,2169,-22753,4402,268438473
312,1956,15720,2487,-24339,7294,268438473
1504,1556,16372,36,-21252,4674,268438473
2240,1480,16136,-474,-20193,1991,268438473
3496,1096,14888,687,-17985,1155,268438473
2692,1228,14716,1702,-19638,845,268438473
6148,1684,14580,829,-19289,189,268438473
6572,1148,13348,277,-15316,-8,268438473
5828,1220,12892,893,-17383,1173,268438473
9360,1844,13584,990,-17782,764,268438473
9332,1508,14072,486,-14977,-132,268438473
9132,1740,13416,446,-17422,222,268438473
10080,1376,12760,-110,-16720,907,268438473
10324,1280,11544,758,-19278,1599,268438473
12760,1508,11504,952,-18829,1215,268438473
12776,1752,11388,671,-15322,32,268438473
11980,2164,10564,529,-16484,206,268438473
13996,1844,9540,347,-19916,2850,268438473
15044,1152,7716,720,-17653,3161,268438473
15844,1356,6176,1740,-15609,1167,268438473
15304,1168,6316,2659,-16788,3492,268438473
17192,80,5436,3852,-22524,8969,268438473
15204,1320,5800,3756,-17128,6582,268438473
15224,1536,4908,2038,-15614,1820,268438473
16984,676,3500,408,-14424,857,268438473
17608,732,2508,960,-14093,2686,268438473
16756,512,1740,1446,-13862,3552,268438473
17548,768,1272,944,-13116,3992,268438473
16436,648,1204,-340,-10387,3028,268438473
16408,-372,-844,-1119,-9468,1403,268438473
16776,-328,-868,-770,-8328,97,268438473
17548,92,-468,-378,-7644,607,268438473
19184,96,-1204,-458,-4219,-185,268438473
18744,-420,-1600,-283,81,-672,268438473
19004,-612,-1548,375,4043,-1153,268438473
17500,-704,-1112,1868,9416,-1088,268438473
16740,-440,-528,2516,12923,-1045,268438473
15908,552,772,2555,15923,-1516,268438473
17408,816,1736,1826,20407,-4051,268438473
18456,528,3608,232,27042,-6019,268438473
15268,1160,4328,-403,29612,-4436,268438473
15000,2024,4708,-502,22766,-1698,268438473
17932,1300,6744,158,23703,-2540,268438473
15528,1792,8148,-568,29463,-3872,268438473
11080,1548,9036,-594,28569,-4772,268438473
9780,896,10932,-517,18975,-4727,268438473
13056,1764,11636,93,16223,-5026,268438473
13300,1444,12768,-345,20669,-7465,268438473
11404,1856,13156,-645,23118,-7698,268438473
8892,1820,12940,-1191,20021,-5272,268438473
7864,2040,13628,-1489,15856,-2951,268438473
7872,2220,14304,-1420,15503,-2985,268438473
7952,1928,13968,-668,19347,-5251,268438473
5640,2024,14716,342,21352,-5441,268438473
3960,2816,15252,-91,19127,-4454,268438473
3092,2796,14620,-1843,14295,-3304,268438473
3800,2216,15524,-2550,13504,-2672,268438473
1620,2428,15928,-1834,14464,-1909,268438473
708,3224,15528,-1562,11876,-809,268438473
1608,2336,16340,-2322,11253,-1467,268438473
1060,2192,16568,-2520,14371,-2316,268438473
-1032,2116,16092,-3044,16735,-3404,268438473
-2484,1168,14760,-2966,14122,-3054,268438473
-2512,1100,14936,-2159,11310,-1493,268438473
-2868,1648,15384,-1608,12184,-1735,268438473
-3436,1544,16120,-270,15267,-4048,268438473
-5236,1184,15028,479,16131,-4698,268438473
-6880,1236,14820,464,12720,-3883,268438473
-6768,1476,15628,508,10458,-3931,268438473
-6496,1752,15508,-416,11136,-5405,268438473
-7108,1652,15016,-671,13174,-5963,268438473
-8556,1408,14444,-401,11927,-5501,268438473
-7376,776,14144,-2278,7921,-4317,268438473
-6856,240,13500,-3157,8942,-3579,268438473
-7844,-568,12468,-1403,12262,-3522,268438473
-9780,-456,11204,-498,12279,-2487,268438473
-10120,-664,11028,-59,9640,-1311,268438473
-9312,-400,11688,566,9644,-995,268438473
-9624,500,11244,1912,11060,-846,268438473
-9976,-920,10252,1603,14135,537,268438473
-11524,-476,10876,1206,13469,1674,268438473
-11060,460,11164,-68,13473,1707,268438473
-12104,800,10256,-1864,15730,1174,268438473
-12628,384,9412,-3136,16605,-366,268438473
-14096,-132,7728,-3880,15404,-208,268438473
-14516,-560,6244,-4514,13419,718,268438473
-14116,-344,5900,-3400,13045,259,268438473
-13888,1104,5880,-3239,14710,-1284,268438473
-15336,24,4532,-4299,15861,-2263,268438473
-15916,-356,2912,-4608,12393,-2393,268438473
-14732,-580,2596,-3900,11739,-3602,268438473
-15256,-968,2400,-3576,11878,-4875,268438473
-14524,-1644,1612,-4214,11313,-5018,268438473
-14936,-2720,224,-3269,11310,-3992,268438473
-15532,-2728,-464,-1704,9191,-2641,268438473
-15424,-2172,-908,-1741,6486,-1478,268438473
-16716,-2816,-1920,-1642,2921,-592,268438473
-16108,-3156,-2172,-501,-285,-37,268438473
-15788,-3032,-1004,832,-3084,1352,268438473
-15896,-2348,-600,1447,-3528,1650,268438473
-16372,-2012,-748,1240,-7129,2636,268438473
-16260,-2140,-996,1143,-11349,2623,268438473
-16132,-1612,-304,1081,-18764,3916,268438473
-14928,-356,1436,-362,-26347,5151,268438473
-14600,-804,3768,-878,-27835,5069,268438473
-14416,-1028,5624,-236,-28753,4254,268438473
-13896,-816,6804,742,-29163,2891,268438473
-13036,180,8352,2172,-24959,2846,268438473
-12516,-112,9824,2117,-20650,2721,268438473
-12488,-628,9684,507,-24535,2842,268438473
-10756,-616,11668,1656,-28795,3150,268438473
-7820,1228,13388,3149,-30453,872,268438473
-7028,2040,12988,1603,-22664,664,268438473
-8436,648,13868,1188,-20397,2727,268438473
-7360,-360,13256,2052,-27935,2341,268438473
-3252,284,15008,3148,-28535,227,268438473
-2000,1436,14852,2977,-25605,-1168,268438473
-1560,1908,16604,1576,-21317,-150,268438473
-2580,2004,17880,2275,-19206,2144,268438473
-424,1492,16812,895,-25509,2863,268438473
2172,1324,15636,251,-22828,320,268438473
1972,1092,15564,1351,-15606,-1369,268438473
2812,1672,15212,2634,-16345,-615,268438473
4324,1492,15640,1350,-16041,7,268438473
5536,2212,16260,639,-16158,712,268438473
5756,2656,15040,-1260,-17016,283,268438473
6232,1828,14452,-1498,-18298,-949,268438473
6932,1344,14532,121,-16751,-1304,268438473
7192,1736,14080,1335,-14970,31,268438473
7136,1376,12968,1731,-15832,1191,268438473
9572,1280,11716,2214,-21897,764,268438473
12712,1656,10820,4867,-20478,77,268438473
10424,1684,12928,8829,-21386,2208,268438473
10180,1552,10372,7300,-22674,3152,268438473
12352,1576,8576,2234,-26374,2913,268438473
16708,1904,6560,1587,-22541,-422,268438473
15780,2244,7252,2090,-15131,-1709,268438473
16136,3008,7040,3117,-18907,1210,268438473
17660,3612,7120,1864,-16175,3521,268438473
16056,2572,6084,81,-11736,3806,268438473
15764,2284,4096,-638,-12478,1638,268438473
16144,1836,3916,-312,-12333,1304,268438473
17268,2204,3268,-112,-14265,3766,268438473
16456,1644,2784,-58,-12591,5089,268438473
14804,1600,2140,-327,-12273,3287,268438473
16200,1740,1908,-1069,-12577,2727,268438473
15876,1624,1336,-451,-11000,3023,268438473
16224,1664,-196,330,-11508,1688,268438473
16416,1112,-288,-277,-8709,1137,268438473
17432,624,-1372,-265,-8333,1472,268438473
18332,872,-2264,-80,-5037,235,268438473
19056,640,-2884,825,-2127,214,268438473
18520,520,-2340,1877,3510,816,268438473
17004,848,-744,2470,6051,1534,268438473
18028,176,-348,2499,8132,1477,268438473
18456,944,-88,2237,15345,1077,268438473
17460,272,-188,3523,17759,1372,268438473
16660,796,316,3415,18611,964,268438473
16896,-56,1724,1893,23382,42,268438473
17604,916,3704,450,28605,-2227,268438473
14860,576,5612,538,29461,-3281,268438473
13396,1656,6240,1301,21408,-2334,268438473
15336,1976,8840,1005,21106,-1845,268438473
14748,1612,11044,605,25951,-3138,268438473
12004,1808,11128,-278,28735,-5466,268438473
9372,1136,8988,-1157,20957,-5880,268438473
11236,448,11328,495,15674,-5682,268438473
11432,1464,14024,2587,18258,-4059,268438473
10048,2412,14044,2167,21663,-4585,268438473
7208,2844,13156,1812,21558,-5998,268438473
6692,2972,13852,1179,18317,-6172,268438473
6964,2808,15424,595,17879,-5513,268438473
6388,3452,15604,13,20558,-5397,268438473
4040,3240,14448,-646,19713,-4155,268438473
3100,2372,14552,-1880,16204,-2405,268438473
2348,2492,15768,-2531,14771,-2812,268438473
996,2404,15348,-3394,16291,-3254,268438473
484,2644,14852,-3500,16453,-2534,268438473
96,3304,16176,-1681,12932,-3011,268438473
68,3128,16368,-1825,13918,-2459,268438473
-296,2496,17140,-1426,13768,-2984,268438473
-1152,2100,16220,-2993,14014,-2699,268438473
-2372,1148,15972,-4118,15159,-3390,268438473
-3020,1012,16144,-1763,16279,-3931,268438473
-3840,1744,16180,-509,17197,-3533,268438473
-4896,1700,15456,-1844,17734,-3325,268438473
-6732,1252,14764,-1831,17652,-2828,268438473
-6920,1228,13944,-1779,16981,-2899,268438473
-7880,676,13728,-729,18358,-2884,268438473
-8992,1344,13600,207,18712,-2379,268438473
-9472,1888,12956,-1366,18946,-3271,268438473
-10544,596,11348,-2933,17265,-2823,268438473
-11344,184,10344,-3045,15442,-1680,268438473
-12232,-236,9208,-2717,15127,-1575,268438473
-12304,-336,8624,-2017,12195,-837,268438473
-12308,64,9040,-1570,11340,-570,268438473
-13452,116,8068,-1879,11204,-796,268438473
-13332,-724,7044,-2515,8355,-426,268438473
-12084,-1740,7792,-2198,6801,1049,268438473
-12388,-144,7824,-909,12570,961,268438473
-14752,748,6328,-1236,13106,-169,268438473
-15628,200,4720,-1993,12071,-1068,268438473
-15692,-944,4392,-295,10941,-730,268438473
-15868,-304,4552,740,10246,-108,268438473
-15364,-488,4820,382,11238,-1960,268438473
-15104,-792,4504,21,10892,-2748,268438473
-14708,-928,4032,-24,9987,-1589,268438473
-15020,-532,2988,-418,10370,-834,268438473
-16128,-136,2052,-544,9762,-1662,268438473
-16128,-420,1208,-1413,8362,-4101,268438473
-14560,-1792,320,-2097,5670,-4355,268438473
-14228,-2712,-760,-1017,4724,-2260,268438473
-15952,-2472,-1128,41,1979,244,268438473
-15260,-1176,704,1193,-867,-327,268438473
-13744,-1668,852,-702,1044,-1224,268438473
-14532,-2152,500,59,1898,303,268438473
-16760,-1828,4,773,1383,627,268438473
-16316,-1412,324,1091,291,86,268438473
-15172,-1104,1524,468,-300,-434,268438473
-16132,-1288,520,-897,675,217,268438473
-17084,-1408,-244,-520,-1554,748,268438473
-16564,-1412,-296,-623,-3872,187,268438473
-15552,-2132,-356,-683,-6062,403,268438473
-15708,-2628,-576,-283,-10643,1931,268438473
-15784,-1788,712,-304,-17248,3468,268438473
-16224,-1096,2104,-715,-24187,4292,268438473
-14892,-12,4284,-1550,-28786,4115,268438473
-13400,-976,6288,-1479,-27382,3259,268438473
-12268,-868,7484,-689,-25335,3820,268438473
-11984,-872,8624,516,-21581,3000,268438473
-12612,-492,9720,1648,-20642,2957,268438473
-12636,352,10168,1115,-24136,3791,268438473
-11144,704,11480,214,-25419,3579,268438473
-8872,612,12192,1133,-22528,2665,268438473
-8312,596,13504,2745,-19329,2217,268438473
-8508,1064,12904,2442,-19877,2626,268438473
-7532,1020,14108,599,-22852,2802,268438473
-6272,1228,14928,-165,-23388,2809,268438473
-4724,876,15660,-86,-21905,2222,268438473
-3220,920,16096,0,-20801,1807,268438473
-2768,896,16816,-160,-21891,2034,268438473
-2152,604,16232,-705,-24120,2323,268438473
-628,248,15336,-609,-27901,1911,268438473
1792,756,15424,-133,-23274,742,268438473
3184,1032,16132,545,-18245,365,268438473
3684,1640,16692,743,-16825,1303,268438473
4120,1296,16612,-634,-21324,2624,268438473
4176,968,14032,-1547,-24174,2249,268438473
5200,-36,14164,-731,-24241,667,268438473
7364,684,13804,208,-22712,-357,268438473
9476,804,14200,181,-20216,883,268438473
9168,1224,13428,466,-19632,1904,268438473
8564,1052,12776,-381,-23315,2272,268438473
9992,204,11020,-1994,-30338,3543,268438473
15888,-340,10340,-1340,-26246,3272,268438473
14224,720,9876,478,-13421,1058,268438473
11480,524,9924,254,-12358,-528,268438473
12168,140,8844,-833,-20334,765,268438473
16736,-16,7992,-1158,-22612,3731,268438473
15620,828,6536,138,-20283,5840,268438473
15524,-384,5800,10,-21770,4545,268438473
15340,-768,4952,-214,-20382,4211,268438473
15468,-912,3728,744,-21059,3366,268438473
18464,-1276,1660,1096,-20511,2159,268438473
16220,-1396,540,465,-16877,2900,268438473
17096,-1324,508,1165,-16940,1890,268438473
17368,-1056,-316,1388,-13959,2010,268438473
17040,-1428,-936,1349,-12320,1838,268438473
17664,-1468,-2200,2010,-10489,2101,268438473
16616,-1024,-2412,939,-7787,1997,268438473
17356,-1676,-2904,106,-6233,1095,268438473
17064,-1564,-2824,582,-3298,1038,268438473
16984,-1536,-3124,510,-515,749,268438473
17172,-1488,-3356,638,2565,-38,268438473
17568,-1520,-3076,1104,7374,-922,268438473
17416,-1336,-2688,1510,15061,-2778,268438473
17204,-1416,-1804,1349,23998,-4530,268438473
16684,-1136,-288,1478,26266,-4621,268438473
18316,-2208,2468,2706,26898,-4599,268438473
18700,-1324,3484,4028,32767,-3340,268438473
16672,1144,5636,5174,32767,-2635,268438473
13824,920,6712,5003,32767,-3784,268438473
12580,-36,8564,3075,32767,-6320,268438473
12848,-332,10692,2610,28747,-8546,268438473
12976,1156,11340,2876,31608,-8414,268438473
11104,1124,13104,2648,32767,-8258,268438473
7576,1704,12904,1569,27739,-6709,268438473
7028,1772,13220,-3,21614,-4621,268438473
6736,1412,13956,81,20995,-4816,268438473
5716,1540,14776,1986,21517,-5036,268438473
4468,2264,15484,2910,19375,-4555,268438473
4028,2992,16232,2264,19323,-4414,268438473
3228,2656,16348,865,21521,-4479,268438473
1792,2408,15976,-328,21022,-3544,268438473
640,2712,16236,-341,19298,-2710,268438473
-684,2804,15992,-1541,21398,-2346,268438473
-1884,2580,15792,-1419,21158,-3267,268438473
-2500,2228,15288,-1203,21194,-3302,268438473
-3828,2240,14900,-838,21408,-4166,268438473
-5220,2240,14372,-435,19806,-3452,268438473
-5904,2172,14004,-482,18835,-3594,268438473
-7408,1892,13732,-152,18272,-4134,268438473
-7488,1532,13232,130,17758,-4835,268438473
-7924,1432,12752,970,19352,-5803,268438473
-9924,1156,12276,1530,18231,-5014,268438473
-10436,1584,11656,81,14504,-3349,268438473
-10640,1384,11508,-563,15248,-2223,268438473
-11896,1008,10092,-260,15298,-1761,268438473
-12556,940,10012,-19,13740,-1488,268438473
-12808,1228,9376,54,13876,-2052,268438473
-13140,720,8584,-685,12106,-2332,268438473
-13208,544,7648,-579,11333,-1552,268438473
-13728,1096,7404,-306,10970,-769,268438473
-14828,1184,6864,-899,11673,-774,268438473
-14952,716,5824,-1337,11197,-1901,268438473
-14276,308,5756,-859,10772,-2622,268438473
-13732,92,5404,-1184,12067,-2484,268438473
-15380,292,3892,-1966,11693,-492,268438473
-15140,200,3520,-1111,10104,-1952,268438473
-13924,476,3772,-370,11241,-3757,268438473
-14716,-384,1312,-1172,12875,-3250,268438473
-16908,-908,-380,72,10270,200,268438473
-17988,-272,-28,1210,7302,-507,268438473
-15512,-656,1000,901,6101,-3436,268438473
-14452,-1392,908,829,5203,-2879,268438473
-14504,-628,1180,1546,6561,-1165,268438473
-15996,668,1096,831,7155,-1074,268438473
-16084,-4,12,-1229,5559,-2948,268438473
-14752,-2000,-1028,-1668,5233,-3028,268438473
-14400,-2012,-1184,-198,5291,-1681,268438473
-15744,-1488,-880,-282,5465,-1189,268438473
-16528,-1076,-2132,-1296,4102,-1564,268438473
-15228,-1712,-2608,-1629,2013,-1548,268438473
-15436,-2000,-3128,-1160,1946,-709,268438473
-15748,-1824,-3324,-411,-372,22,268438473
-15728,-2000,-2920,-420,-2546,1066,268438473
-15856,-1836,-2840,-211,-5182,2370,268438473
-15444,-1188,-1588,220,-7211,2910,268438473
-16720,-1112,-1484,-1028,-10815,3757,268438473
-17524,-696,-848,-4357,-21380,5269,268438473
-17300,-756,-544,-6274,-28538,5848,268438473
-15424,-700,460,-2948,-29471,4938,268438473
-14508,-152,4180,1098,-24797,3341,268438473
-13336,428,5916,1772,-23720,1964,268438473
-13600,876,7432,1150,-22187,3207,268438473
-13804,592,8368,32,-22492,2993,268438473
-13460,176,8868,302,-22229,3210,268438473
-12576,188,9780,1928,-22332,2590,268438473
-10892,920,10932,2805,-22559,1740,268438473
-10424,1836,12648,2913,-25180,2358,268438473
-9080,2744,12800,1223,-27852,2324,268438473
-7852,1488,13448,-481,-23766,1909,268438473
-6972,684,12948,9,-24147,859,268438473
-4708,1436,14824,1527,-23048,764,268438473
-4980,2604,15704,2212,-21889,893,268438473
-4236,2380,15248,18,-26085,1004,268438473
-2360,1908,14712,-548,-23533,84,268438473
-1220,1232,15864,203,-21309,841,268438473
368,1436,16344,494,-21320,55,268438473
560,1596,15868,734,-21051,-307,268438473
1584,1292,15336,723,-23293,-1789,268438473
3340,2632,16072,-336,-19819,-1549,268438473
4000,2264,16728,-1128,-16938,-377,268438473
3404,1524,15636,-1318,-19512,1139,268438473
5708,1172,13220,-1900,-25423,1952,268438473
8384,148,12228,-1794,-24223,-93,268438473
8608,1264,13120,-92,-20918,-1982,268438473
7636,2492,13672,804,-23549,-477,268438473
9168,2024,13052,-470,-30992,1719,268438473
14280,876,9884,-2376,-29975,1766,268438473
11624,80,9324,491,-21534,871,268438473
11464,1064,8568,2126,-22959,-1182,268438473
14748,1564,8132,-61,-26204,-1081,268438473
15952,1744,7404,497,-24017,1232,268438473
16156,2004,6472,428,-22767,1198,268438473
17652,1716,4664,1631,-21339,1487,268438473
17716,1504,4604,1504,-18306,3803,268438473
16584,1312,2392,-544,-18967,5706,268438473
19276,744,1096,-341,-18908,7078,268438473
18664,624,480,675,-11220,4023,268438473
18256,808,516,2519,-4490,2287,268438473
17376,872,1156,2417,2660,1144,268438473
15076,696,856,2727,4353,-111,268438473
16268,708,1816,2474,3435,-67,268438473
16256,484,1776,1303,3784,39,268438473
16036,212,1504,771,4663,-513,268438473
16192,-36,1144,473,6582,-1142,268438473
17224,84,540,952,8722,-1805,268438473
18104,136,2360,2071,14908,-2429,268438473
16836,968,3884,1774,13628,-795,268438473
16036,896,4300,-219,10291,154,268438473
16236,644,4420,-482,10641,471,268438473
17204,484,4592,-341,16397,-755,268438473
16068,-744,6828,2672,25996,-4195,268438473
12180,-56,7608,4535,29465,-1785,268438473
12688,1632,8240,1710,15719,1956,268438473
15588,1056,9628,480,14568,2376,268438473
14872,680,10808,2540,19933,1167,268438473
11104,1184,10728,3529,22496,-406,268438473
9440,1548,11140,3207,17202,-1613,268438473
10412,1700,12708,3277,15678,-1944,268438473
9876,1888,13620,3923,19484,-2093,268438473
7832,2088,13884,3326,21694,-2000,268438473
8100,2304,13764,1854,20164,-3199,268438473
6520,2252,14596,1638,21917,-3073,268438473
6668,2060,14020,-388,21017,-2725,268438473
5068,1676,16400,-1538,21081,-2878,268438473
3316,1552,13252,-1618,26071,-121,268438473
3644,4116,15168,-5181,26506,560,268438473
944,1952,18152,-3386,16633,-2301,268438473
704,1404,15608,1202,14805,-2013,268438473
-340,1484,15636,-3425,15366,-1076,268438473
-1208,1312,16688,-2819,11811,-2151,268438473
-2132,1372,16884,16,12397,-1452,268438473
-1860,1156,15348,1402,13900,-1810,268438473
-2992,1668,15180,1552,15241,-2537,268438473
-4856,2004,15848,1527,15289,-2928,268438473
-4724,1724,15456,112,17452,-3395,268438473
-6160,1268,14424,-2200,17380,-3944,268438473
-6448,584,13912,-2468,15760,-2967,268438473
-7072,620,14088,-574,16760,-2140,268438473
-8492,1592,13176,586,19902,-2648,268438473
-9684,1160,12292,128,20996,-4137,268438473
-9884,512,10928,-1318,18792,-2630,268438473
-10568,616,10164,-3278,17302,-1662,268438473
-12096,448,11132,-2869,16648,-1764,268438473
-13504,468,9512,288,13243,-1373,268438473
-12460,748,8600,1683,12310,-2400,268438473
-12644,24,8616,2948,11940,-1730,268438473
-13728,316,8420,2432,9476,-681,268438473
-13820,488,8560,1932,8422,-1376,268438473
-14100,380,7960,1644,11254,-1894,268438473
-14020,228,7168,1505,13720,-1965,268438473
-14948,700,5136,437,14867,-1671,268438473
-14896,-260,5424,666,10661,-1721,268438473
-14708,-96,5268,707,10732,-1140,268438473
-15408,136,4664,15,12546,-1884,268438473
-15960,224,4148,389,12655,-2633,268438473
-15380,40,3148,-90,12800,-2996,268438473
-15116,-572,2248,-1479,14905,-3157,268438473
-15468,-940,1136,-2188,13615,-3141,268438473
-15424,-992,-56,-1884,11974,-2106,268438473
-15716,-1000,-452,-3717,9622,-2484,268438473
-14984,-1184,-876,-4682,5368,-2081,268438473
-15644,-1540,-544,-1865,1908,-1734,268438473
-15344,-1316,-544,-1126,1127,-1411,268438473
-15516,-1628,-1756,-1788,-1436,-767,268438473
-15948,-1800,-1652,-2400,-7987,76,268438473
-15564,-1304,-404,-1652,-12703,570,268438473
-15572,-2100,808,-538,-19595,2057,268438473
-16876,-2196,1832,-402,-23884,4523,268438473
-15176,-868,3696,1947,-23240,4132,268438473
-15272,-968,3748,1770,-23311,4776,268438473
-13320,-1752,6492,369,-32050,8110,268438473
-13172,840,7204,1899,-32768,9389,268438473
-13244,1604,8344,5510,-25112,4984,268438473
-12976,2280,8852,5478,-23394,1635,268438473
-11448,1656,10820,4052,-23013,2294,268438473
-10580,1828,11220,3337,-25502,3684,268438473
-8700,1404,13360,1788,-28463,3442,268438473
-7464,2280,12728,-2397,-20887,1668,268438473
-8380,1916,13088,-5633,-22951,1193,268438473
-4744,564,14560,-4845,-30715,1320,268438473
-1856,336,14560,-1568,-25934,-132,268438473
-1920,524,15568,-307,-20536,701,268438473
-1892,1108,15392,-1490,-21938,2108,268438473
-2232,1304,16060,-2313,-26540,1239,268438473
-320,2136,16540,-2321,-27391,-648,268438473
1312,428,15988,-1961,-26708,-274,268438473
2888,436,16272,-1650,-25056,1080,268438473
3472,804,16772,-1625,-26999,1274,268438473
5644,1012,15128,-2677,-25299,518,268438473
6336,280,14912,-2953,-21706,-1383,268438473
7248,-604,14340,-311,-18025,-675,268438473
7516,28,14304,1511,-17078,-619,268438473
9320,880,13384,674,-21864,-651,268438473
12352,1156,12076,-878,-23312,627,268438473
11596,228,11540,-1117,-20259,-367,268438473
9900,144,10192,-624,-22965,-737,268438473
15028,704,8596,-1672,-29256,-561,268438473
15372,988,8168,-2162,-25080,-759,268438473
13800,-4,7896,-1346,-21599,-1656,268438473
16472,816,6656,-1484,-23582,-2511,268438473
15340,572,6316,-2136,-20875,-2955,268438473
14644,544,3776,-3106,-22089,-2066,268438473
16748,524,1048,-3872,-24388,-326,268438473
17972,-364,1216,-1449,-19876,469,268438473
17964,452,668,185,-14966,770,268438473
17532,1500,-292,-1082,-13770,986,268438473
17612,1168,-692,-1062,-12487,-443,268438473
18380,424,-1880,721,-8978,112,268438473
16896,800,-2576,1275,-10812,1839,268438473
16000,288,-2920,1229,-9594,1540,268438473
15460,-16,-1816,1219,-4080,-687,268438473
16248,552,-2224,238,-2579,-1442,268438473
17608,1120,-2692,-88,399,-989,268438473
16736,1236,-2928,-381,528,-275,268438473
18208,736,-3892,53,3176,-1122,268438473
18160,500,-3068,565,9597,-1167,268438473
18380,340,-2440,777,15956,-1657,268438473
18024,-304,-1716,2809,25697,-1901,268438473
17636,264,452,3850,32767,-1874,268438473
16776,1164,2568,4816,32767,-2125,268438473
14132,612,4292,5149,32767,-1128,268438473
15372,1684,5572,3757,25363,680,268438473
15756,1332,7224,2585,23535,1767,268438473
14492,1704,8824,1942,26363,1278,268438473
12840,988,9652,1752,29821,-457,268438473
11500,1440,10016,3625,31151,-975,268438473
10420,1592,12456,5798,29566,-1715,268438473
9472,2208,13940,5044,26597,-1203,268438473
8092,2328,15040,2629,25670,-1118,268438473
7340,2256,14852,1385,23942,-1684,268438473
7208,2612,14348,1520,24304,-2892,268438473
5424,2504,15692,2978,23253,-2440,268438473
4708,2976,15880,2720,23364,-1497,268438473
3576,2664,16452,1585,25867,-1418,268438473
1732,2932,15696,1088,25035,-1812,268438473
540,2684,14888,1756,24438,-3584,268438473
-1920,3068,15696,2696,25089,-3572,268438473
-2728,3976,16220,-93,21086,-3145,268438473
-3784,3388,15884,-2504,16605,-3450,268438473
-3688,2484,14716,-945,16303,-3465,268438473
-4408,3048,12352,-993,21650,-2639,268438473
-5972,1840,14804,-1512,16031,-3380,268438473
-6204,2416,12004,-4784,20910,-1203,268438473
-8624,2116,14236,-7263,19254,-195,268438473
-8936,1464,11904,-4675,15576,-871,268438473
-9692,772,11588,-1387,15548,-1558,268438473
-10692,1860,11152,-452,15890,-1213,268438473
-11976,1988,10360,-739,15111,-1200,268438473
-12376,1952,10188,-691,13743,-2131,268438473
-11128,1000,9532,-321,12496,-3920,268438473
-11624,364,8984,1393,13368,-3659,268438473
-13592,880,8444,4033,13330,-1991,268438473
-14908,1488,8748,4147,11280,-650,268438473
-14296,2028,8632,2747,9922,-1112,268438473
-13936,1572,7944,1671,11771,-1673,268438473
-14704,712,6032,1435,14210,-1390,268438473
-15148,1112,4428,3019,16135,-2550,268438473
-15144,1376,4740,3107,14254,-4161,268438473
-14632,20,4404,880,12636,-3969,268438473
-14204,-220,4352,-1118,11145,-2124,268438473
-14568,-32,3412,-2187,11925,-1224,268438473
-15852,180,1664,-2566,11306,-852,268438473
-15376,1092,1176,-2506,9011,-1145,268438473
-16152,676,284,-2490,10671,-3531,268438473
-16284,-232,-1488,-3271,8245,-3705,268438473
-16340,-120,-2508,-1914,2911,-3659,268438473
-14720,-952,-1004,-297,-249,-2988,268438473
-14308,-404,-172,-448,1479,-1497,268438473
-16544,-1208,-2068,-531,-1306,-403,268438473
-15216,-1816,-1724,-1091,-8438,1520,268438473
-13956,-1380,496,-804,-11186,4154,268438473
-15200,-348,792,-1480,-12719,4496,268438473
-16768,-388,628,-2176,-20221,4755,268438473
-15128,-408,2876,-2327,-29983,6340,268438473
-13768,324,5648,-485,-32180,6937,268438473
-14480,1368,7260,837,-31839,6810,268438473
-13540,1564,9836,1269,-31394,5663,268438473
-11200,2172,10164,802,-30821,3938,268438473
-10068,2280,10248,-1543,-27708,2686,268438473
-9664,1796,10624,-3619,-20656,3898,268438473
-9952,1880,12872,-2929,-19063,5837,268438473
-9768,1964,12892,-1523,-17281,3785,268438473
-8500,1964,13440,-842,-18197,1859,268438473
-6424,1220,14216,-24,-23440,1677,268438473
-6512,2136,14204,-625,-23908,2642,268438473
-5160,1716,14740,-1773,-26697,4313,268438473
-2684,2112,15092,-841,-27532,3132,268438473
-1368,3644,15032,550,-27706,1054,268438473
-744,2676,16360,1078,-26536,-1016,268438473
1012,2500,15900,-311,-28635,-1793,268438473
2980,2184,14976,-641,-31566,-2639,268438473
6472,1220,14660,523,-29738,-3254,268438473
5956,1624,14600,189,-24128,1097,268438473
6816,2592,15712,-1017,-23548,2288,268438473
7444,2368,15228,-2192,-25780,3351,268438473
9440,2368,13696,-2982,-29292,4669,268438473
13012,1844,12544,-3129,-27212,5144,268438473
11996,1064,12012,-2652,-25210,4510,268438473
9784,280,10332,-3204,-25066,3977,268438473
11384,1092,9320,-3624,-28428,3861,268438473
15940,36,7012,-3157,-28967,3097,268438473
16992,-216,6684,-426,-21729,4035,268438473
14352,-480,6292,-275,-18199,4571,268438473
15560,-1516,4228,-2277,-18948,3403,268438473
15348,-1872,2640,-2412,-20292,2054,268438473
17688,-1868,1768,-935,-19675,3531,268438473
17576,-184,1472,183,-16985,4629,268438473
16944,-436,1928,-887,-15948,2220,268438473
17332,-636,1096,-2763,-12593,720,268438473
17956,-720,-964,-3232,-9167,-411,268438473
17540,-1232,-1764,-2947,-7564,-770,268438473
17432,-2256,-1428,-2236,-10114,-1084,268438473
17848,-1104,-1876,-1462,-5900,712,268438473
17372,-1172,-2268,-891,-3896,370,268438473
17156,-816,-2644,-720,123,52,268438473
17296,-1092,-2528,-377,2149,-181,268438473
16236,-2096,-2380,-444,2432,-661,268438473
17328,-916,-2444,-159,7029,-463,268438473
18204,-1420,-1396,155,11403,-547,268438473
18128,-996,-268,445,18750,-449,268438473
16420,-636,1068,647,28521,-2004,268438473
15900,-904,2252,672,29102,-5446,268438473
19348,-1124,3788,277,31965,-6186,268438473
17792,-440,4684,1034,32767,-4428,268438473
13084,-440,6072,2349,32767,-3289,268438473
10872,28,8720,4239,32767,-3656,268438473
10056,300,11548,4756,32279,-2943,268438473
11788,560,12780,1962,30143,-3246,268438473
10192,852,13408,2285,32767,-6297,268438473
7868,1324,14608,3665,32767,-7039,268438473
5356,2248,14984,2729,32767,-5034,268438473
3996,2600,16168,1158,27906,-3029,268438473
2892,2524,17036,-778,25576,-1124,268438473
1160,1880,16456,-1322,27155,-1419,268438473
416,1740,16240,-641,24314,-2127,268438473
-180,1872,16184,-432,21882,-2453,268438473
-1368,2044,16236,-1789,20823,-1395,268438473
-3140,1348,16068,-2896,20912,-676,268438473
-4008,1140,15324,-2476,19865,-597,268438473
-4392,492,14972,-2036,18959,-441,268438473
-5984,1220,14256,-459,16713,-739,268438473
-6336,1016,14100,-979,17778,-396,268438473
-8164,760,12656,-855,18256,-336,268438473
-8956,1296,11872,265,18583,-611,268438473
-10148,1156,11308,1661,16391,-1345,268438473
-10048,1236,11904,1714,12555,-1841,268438473
-10984,1376,11612,1428,12950,-2336,268438473
-10856,1156,11236,1672,13810,-2311,268438473
-11532,952,10092,1460,12874,-1880,268438473
-11988,612,9932,1610,12640,-1168,268438473
-12304,960,9112,1847,13225,-1030,268438473
-13072,1560,9088,2235,14556,-892,268438473
-14460,1608,8352,2098,15346,-886,268438473
-13848,1852,7648,482,12191,-1561,268438473
-13540,1072,6596,-1147,12393,-1518,268438473
-14220,556,5416,-287,14805,-664,268438473
-14812,648,4372,737,17356,-1156,268438473
-15448,1008,3996,-32,14887,-1089,268438473
-16180,772,2872,-1021,11676,-1821,268438473
-14764,412,2452,-1485,11209,-2418,268438473
-14968,292,1568,-666,13349,-3857,268438473
-15896,-224,528,-596,11606,-2949,268438473
-15392,-360,-92,-1248,10800,-2389,268438473
-15968,-660,-1140,-909,8209,-1318,268438473
-14672,-92,-252,-1392,6282,-1249,268438473
-15812,-84,-1644,-2031,4849,-2110,268438473
-16272,-964,-2240,-2194,-75,-1819,268438473
-15300,-1124,-1548,-1379,455,-607,268438473
-15164,-1020,-1740,-1344,355,260,268438473
-16140,-716,-1784,-1229,-2285,1085,268438473
-16508,-820,-2032,-1693,-8017,2138,268438473
-16684,-876,-1332,-2511,-14444,2847,268438473
-16560,88,364,-2348,-22001,3626,268438473
-16376,184,3364,-268,-32768,2893,268438473
-15136,-1224,2224,62,-32768,1570,268438473
-13792,-128,4744,-1672,-29320,2050,268438473
-13660,124,7268,-1572,-24083,2919,268438473
-14468,-540,9716,-1272,-25779,3449,268438473
-13076,1228,10096,-896,-32768,2637,268438473
-7976,1268,11156,-541,-32768,1281,268438473
-6900,1096,10392,-2497,-31004,333,268438473
-8760,84,12424,-4860,-26511,668,268438473
-11816,-608,14028,-396,-32768,3150,268438473
-7068,624,13584,2196,-32768,-242,268438473
1720,2612,15592,2503,-32768,-5685,268438473
908,1600,16412,2358,-20651,-4531,268438473
-1464,668,15968,2548,-20867,-1578,268438473
312,644,15428,3330,-28945,-652,268438473
4944,1344,16072,4054,-29054,266,268438473
5996,1712,15892,3502,-25071,1978,268438473
6080,1528,15052,1887,-28149,4221,268438473
6752,1608,14424,1074,-31923,5656,268438473
8000,1304,13988,1129,-32768,6634,268438473
9196,1168,13352,387,-32768,6915,268438473
11572,1696,12564,-1153,-31899,6330,268438473
12476,1500,11624,-1990,-27840,5459,268438473
11424,912,10152,-2941,-26788,4769,268438473
11944,320,8556,-4021,-29412,3182,268438473
13492,520,7392,-4462,-29403,1361,268438473
16168,-708,5500,-5327,-29368,-1280,268438473
16612,-428,3312,-4952,-25134,-1129,268438473
16688,-996,2024,-3421,-22950,13,268438473
16524,1168,-644,-2084,-21300,-250,268438473
18036,-1748,-256,-742,-18033,-284,268438473
16492,-408,-220,-808,-16234,1243,268438473
17648,-364,-1336,-1518,-17760,1176,268438473
18056,-104,-1952,-681,-14830,1754,268438473
17836,-664,-3612,-134,-11108,1478,268438473
15652,-1876,-3464,139,-12370,-453,268438473
18280,-28,-4304,594,-8221,2488,268438473
16480,-668,-4672,801,-6120,1562,268438473
17272,-736,-5084,666,-2966,1469,268438473
16580,-680,-5500,553,-238,1503,268438473
16732,-864,-5792,711,1279,1578,268438473
15328,-560,-6124,895,3387,659,268438473
17472,-668,-4356,1141,10558,396,268438473
16032,-1276,-3832,428,17105,-2559,268438473
17944,-1492,-2540,408,26631,-5309,268438473
18264,-456,-716,1568,32767,-4813,268438473
12380,104,312,1439,32767,-5121,268438473
18084,-528,2796,1025,27464,-7285,268438473
20520,-552,4296,603,32767,-4707,268438473
17704,444,5340,1078,32767,-3645,268438473
12176,436,6892,3377,32767,-4069,268438473
10736,928,9960,5264,32767,-4243,268438473
11856,1424,12124,3640,32767,-4307,268438473
9984,1224,12764,1768,32767,-4694,268438473
7676,1200,13132,3415,32767,-5039,268438473
4848,2416,14308,4618,32767,-4856,268438473
2628,3344,15296,3426,27535,-4660,268438473
2864,3880,16032,1442,22472,-4906,268438473
2964,3196,15892,328,23286,-5758,268438473
1852,2416,15328,532,23536,-5651,268438473
440,3060,15428,1239,20554,-3884,268438473
-640,3188,15856,459,19362,-2306,268438473
-1920,3488,16612,-29,18977,-1472,268438473
-2152,3448,16224,-1821,20479,-2275,268438473
-4304,2932,15296,-2048,20208,-2828,268438473
-5196,2636,14908,-1729,17803,-1622,268438473
-5512,2884,14732,-1868,18125,-1061,268438473
-6620,2936,14392,-2176,19243,-1188,268438473
-7988,2564,12892,-3567,18736,-1002,268438473
-9124,2288,12256,-3387,17480,-793,268438473
-11416,2844,10940,-2956,18294,-365,268438473
-8328,340,13844,-4098,16244,-340,268438473
-10968,2976,8668,-5712,21889,372,268438473
-11808,1368,9440,-6100,19176,477,268438473
-12436,924,8132,-4629,16274,-327,268438473
-12520,1988,5928,-3046,16941,-554,268438473
-12580,1148,7784,-2928,19300,-421,268438473
-14904,820,5696,-2035,17255,-854,268438473
-15188,912,5472,332,16406,-1522,268438473
-14936,1268,5320,19,16905,-2215,268438473
-15164,1352,2952,-2334,14728,-2166,268438473
-16008,-752,1812,-1714,12330,-1746,268438473
-14904,-832,2748,1394,12493,-2174,268438473
-15044,8,2460,1721,13145,-2480,268438473
-15964,208,2032,-167,9583,-1858,268438473
-16572,476,1248,-544,8389,-2564,268438473
-15832,-336,1276,-248,8807,-3623,268438473
-15544,-1496,-612,-174,8479,-3248,268438473
-14652,-2004,-1168,727,6100,-1033,268438473
-15604,-1076,-536,1410,7139,-132,268438473
-16164,-336,-1096,374,4216,-826,268438473
-15044,-756,-568,684,4166,-1132,268438473
-15508,-624,-1096,365,4758,-752,268438473
-16580,-1056,-2072,274,4049,-527,268438473
-16652,-432,-3204,334,225,-28,268438473
-16684,-752,-2584,815,-1162,325,268438473
-17256,56,-1356,861,-2981,-350,268438473
-17196,-576,-1336,-848,-7812,-297,268438473
-17168,-460,-1064,-2873,-15336,255,268438473
-16600,-1320,664,-4023,-27347,1578,268438473
-14536,-2264,1324,-1543,-32768,2907,268438473
-14624,-2328,3184,1005,-32768,1740,268438473
-13004,-980,5696,-337,-32768,616,268438473
-12756,728,7632,-1435,-32768,2391,268438473
-13680,-1608,7476,-1743,-31387,2558,268438473
-12996,-100,10144,1328,-32768,767,268438473
-7984,-864,10420,6419,-32768,86,268438473
-7500,700,12388,7131,-32768,350,268438473
-5260,1544,14416,6494,-32768,1236,268438473
-4228,1824,15800,5377,-29037,3062,268438473
-2688,2104,16184,3107,-30935,4220,268438473
-2388,1420,15764,1649,-32768,5024,268438473
-792,1412,15612,2168,-32768,4497,268438473
728,2208,16276,2893,-32595,2595,268438473
3140,2276,16336,1504,-31222,1011,268438473
4376,2296,16196,-94,-28099,1275,268438473
4336,1968,14800,-1492,-31833,2469,268438473
8940,1940,13656,-2119,-32768,2891,268438473
11840,1700,13536,-909,-27265,2939,268438473
10924,1988,13472,-139,-22144,2733,268438473
8996,1196,12360,-1387,-23648,2282,268438473
11352,1028,11228,-2872,-25612,1625,268438473
11668,276,10040,-3305,-24669,2183,268438473
11744,96,8084,-4216,-29211,2249,268438473
11680,-1932,5112,-4896,-32768,3498,268438473
15916,-1288,2664,-4381,-32768,2166,268438473
18420,488,1636,-644,-27236,1141,268438473
17792,760,1836,2795,-23191,1109,268438473
17500,344,2228,1709,-23337,2440,268438473
17504,-184,780,-198,-19894,2493,268438473
17160,-96,-440,-1143,-12962,566,268438473
17712,-268,-1688,-1263,-8990,-39,268438473
18464,28,-2348,-18,-6491,1134,268438473
17504,284,-2260,1424,-5131,2459,268438473
17356,40,-2104,913,-4869,2444,268438473
17596,-552,-2452,553,-2265,1919,268438473
17048,-376,-2248,1015,2735,1068,268438473
17716,-424,-1832,669,7300,55,268438473
18600,-436,-1788,646,13811,185,268438473
19268,-808,-1412,829,23306,-388,268438473
16444,-968,-496,1514,32000,-1863,268438473
15468,-884,1252,1824,32402,-5391,268438473
18324,-692,4008,1977,32767,-6383,268438473
17992,252,6108,1335,32767,-5237,268438473
13240,220,7504,1003,32767,-4489,268438473
10084,520,9116,2588,32767,-4497,268438473
10100,688,11724,3269,32767,-4027,268438473
11272,1072,13256,985,31623,-2584,268438473
8460,1352,13252,491,32767,-3583,268438473
7388,440,14324,1501,32621,-4718,268438473
7068,1736,14876,1820,31918,-5649,268438473
5032,1928,15540,1583,30925,-4399,268438473
2116,2440,16048,1448,30490,-3757,268438473
1168,2688,16588,-350,28795,-3329,268438473
-564,1912,15812,-1833,30147,-4626,268438473
-1948,1548,15172,-1337,29768,-5050,268438473
-3968,1200,14580,-1065,28797,-4568,268438473
-5384,1604,14760,-187,25402,-3056,268438473
-6600,1628,14892,-1604,24349,-2303,268438473
-8568,1376,13636,-1814,23253,-2546,268438473
-9148,1476,13016,-2167,20764,-2485,268438473
-9160,1216,11984,-2926,20538,-2524,268438473
-10756,128,10636,-2769,19957,-2300,268438473
-12140,-124,9344,-2181,16554,-1747,268438473
-11592,448,9620,-1791,15241,-1120,268438473
-12584,404,8960,-962,16912,-1304,268438473
-13804,-296,8380,-529,16905,-2109,268438473
-14008,-228,7264,-429,14325,-2162,268438473
-12224,-356,7236,-1419,13348,-1384,268438473
-13224,-792,6112,-802,14780,-578,268438473
-12844,-296,5564,-203,15792,-1444,268438473
-15204,-756,4288,-15,17705,-1876,268438473
-15776,-1052,3024,1060,14697,-791,268438473
-13824,-296,3504,497,13269,-748,268438473
-15380,-716,2484,-1299,12289,-55,268438473
-16212,-568,1632,-1377,9036,746,268438473
-15288,-292,1120,-2273,9749,94,268438473
-17204,-528,-676,-2412,8602,-384,268438473
-16416,-128,-520,-1349,8093,-1239,268438473
-15856,176,-856,-676,8502,-624,268438473
-17412,28,-1860,-1316,6166,-752,268438473
-16260,-640,-1792,-1366,3281,-1333,268438473
-15980,-1868,-2040,-637,1840,-1566,268438473
-14816,-2312,-2260,-27,255,-975,268438473
-14764,-1676,-1680,571,-2225,437,268438473
-16344,-664,-800,600,-3517,1032,268438473
-17492,176,-284,-722,-9210,1895,268438473
-17424,200,720,-2926,-14833,2020,268438473
-16620,-780,1016,-4827,-21097,2264,268438473
-16260,-1748,712,-3945,-27011,3829,268438473
-14564,-1392,2272,-545,-32768,1876,268438473
-14144,400,4388,525,-32768,824,268438473
-16232,548,5908,-1593,-32768,5297,268438473
-12124,-32,7864,-1463,-32768,4950,268438473
-8956,-56,9396,1116,-32768,976,268438473
-8904,1156,10584,3884,-32768,-742,268438473
-8932,2132,13828,4806,-32768,-199,268438473
-6104,1212,15732,3537,-32768,-213,268438473
-3936,964,15308,2748,-32768,1261,268438473
-932,544,15452,4204,-30648,2421,268438473
920,736,16548,4351,-24760,1927,268438473
608,1180,16628,3523,-22368,901,268438473
536,1220,16176,3135,-25030,1887,268438473
2348,1904,16264,2699,-30564,4871,268438473
5788,2360,15692,266,-30792,6850,268438473
5904,1840,14632,-563,-26552,6378,268438473
4280,1452,14168,248,-28498,4266,268438473
7528,1392,14016,-83,-31322,4387,268438473
10808,2256,13288,-2176,-27743,4003,268438473
10128,2164,11564,-3226,-24423,1869,268438473
8940,1272,11388,-2972,-27295,663,268438473
12600,1064,10036,-4615,-28936,542,268438473
14880,992,7636,-6628,-27662,-250,268438473
15340,840,6232,-5109,-21448,-2568,268438473
15700,-1012,4784,-1596,-15006,-3220,268438473
16492,-816,4864,762,-19058,-619,268438473
17080,-148,2900,1471,-22754,3888,268438473
17928,524,2428,2583,-19750,3888,268438473
16580,644,3256,2793,-13247,1710,268438473
17140,1228,3820,2302,-13636,2048,268438473
17824,1620,2692,1201,-10875,2748,268438473
16460,648,2440,745,-7861,2169,268438473
15584,12,1632,398,-5652,1868,268438473
15764,120,528,651,-8072,1932,268438473
17208,120,-404,509,-8258,1894,268438473
16132,-724,-828,1517,-12110,3638,268438473
16940,60,-1980,1475,-13183,3903,268438473
16328,-1164,-2632,223,-10910,1610,268438473
15136,-1280,-3204,-719,-8271,-87,268438473
15672,-908,-2944,302,-13557,1206,268438473
16016,-336,-3820,1057,-18177,3603,268438473
15328,-700,-4604,618,-21341,4211,268438473
15472,-408,-5376,-157,-23171,3990,268438473
13260,-1516,-6624,-1492,-25962,4199,268438473
12576,-1716,-8876,-735,-32270,6865,268438473
14268,-2252,-11372,-736,-32768,5470,268438473
14840,-1540,-13760,-1621,-22969,2455,268438473
12776,-2040,-13660,-312,-22202,2351,268438473
12656,-2388,-14136,-591,-23878,2871,268438473
11644,-2232,-15260,-1787,-19866,2901,268438473
8272,-3072,-15716,-2123,-14223,382,268438473
7900,-3148,-16604,-1557,-13557,-576,268438473
10048,-2280,-18088,-2662,-7179,-542,268438473
8744,-2528,-19112,-1615,-921,11,268438473
10196,-2048,-18792,1014,4606,-769,268438473
10832,-1384,-17492,1214,13923,-1391,268438473
13256,-1372,-16696,1741,25478,-2455,268438473
14456,-412,-13316,939,32767,-4332,268438473
13756,600,-12328,-6735,32767,-5462,268438473
13928,-1516,-13548,-9545,32767,-6247,268438473
16704,-2964,-12596,-5503,32767,-6337,268438473
16388,-2660,-8776,157,32767,-5126,268438473
11112,-1084,-3652,3056,32767,-4851,268438473
11100,-976,616,3066,32767,-7480,268438473
14252,52,3276,2289,32767,-6760,268438473
17028,904,4900,1212,32767,-6404,268438473
15620,1660,6104,1634,32767,-6382,268438473
12080,1828,7952,1961,32767,-5587,268438473
9772,1560,10204,2251,32767,-4876,268438473
9428,2060,11164,2162,30449,-4552,268438473
9700,2560,12084,2114,30775,-5864,268438473
6844,2296,13132,3158,32767,-7406,268438473
4068,3272,14604,4725,29854,-6336,268438473
4300,4756,15988,3654,23756,-4732,268438473
5124,4220,16084,56,25648,-5065,268438473
1804,3620,14992,801,27586,-6744,268438473
264,3748,15412,1365,24235,-6556,268438473
-940,4480,16348,1874,22582,-4760,268438473
-916,5856,17092,149,22901,-3932,268438473
-2780,5016,17116,-1902,24949,-5427,268438473
-3944,4544,16052,-2277,21839,-5919,268438473
-4420,3220,15656,-4073,21590,-4686,268438473
-5764,3056,14240,-5446,20888,-3459,268438473
-6252,2268,13656,-6124,20153,-3126,268438473
-6516,1884,12928,-5601,22213,-2019,268438473
-9816,2456,12172,-4146,25162,-2559,268438473
-11356,2524,10908,-5288,22367,-3894,268438473
-11748,980,9896,-6093,20739,-4647,268438473
-10900,780,9004,-4885,21165,-4931,268438473
-11724,112,8064,-4167,22962,-3516,268438473
-14052,108,7480,-2801,22533,-2435,268438473
-15320,76,7152,-929,22694,-3465,268438473
-15008,1252,7496,-750,22697,-4407,268438473
-15120,956,5908,-3631,22843,-5679,268438473
-14148,-356,3608,-5798,18633,-5167,268438473
-13812,-1576,1080,-5953,16690,-4292,268438473
-13984,-2428,776,-3577,16065,-2994,268438473
-14436,-1368,344,-1568,17035,-1928,268438473
-15444,-848,-316,-2777,15341,-1570,268438473
-16272,-1684,-244,-3315,13665,-2069,268438473
-16260,-1760,-2160,-4024,11300,-2904,268438473
-16052,-2644,-3948,-4179,9783,-3284,268438473
-15216,-3424,-5104,-3426,4955,-2414,268438473
-15344,-3376,-4952,-2247,3000,364,268438473
-16500,-2356,-4144,-772,1447,913,268438473
-16576,-1560,-3812,-80,-1749,117,268438473
-15660,-1700,-3528,-1116,-4428,-59,268438473
-15072,-2040,-3240,-1683,-7992,81,268438473
-16896,-2176,-3172,-1806,-13968,2237,268438473
-17856,-1752,-2228,-3014,-25465,4331,268438473
-16136,-1508,-936,-3298,-32768,4118,268438473
-17104,-1444,-636,-1283,-32768,2690,268438473
-15804,-1696,1708,1897,-32768,2469,268438473
-13032,-968,4928,3459,-32768,1909,268438473
-13364,-188,7644,3857,-32768,3430,268438473
-11860,316,9912,4012,-32768,3915,268438473
-9964,1064,12216,3134,-32768,1910,268438473
-7156,584,13660,1147,-32768,870,268438473
-4528,-112,13652,134,-32768,1257,268438473
-3316,-1092,13104,974,-32768,273,268438473
-652,-980,13200,4377,-32768,-1826,268438473
1636,-32,15076,6534,-32768,-3817,268438473
4716,1188,15952,5747,-32768,-3637,268438473
5868,2340,15256,3983,-32768,-1092,268438473
6196,1784,15232,4206,-32768,1166,268438473
9480,2388,15532,3512,-32768,2991,268438473
10856,2152,13484,1818,-32768,3125,268438473
11556,2584,11388,711,-32768,373,268438473
12692,1896,10580,-96,-28595,-2891,268438473
14524,1864,8772,-949,-25862,-1506,268438473
14180,980,6788,157,-27232,1274,268438473
13880,524,5720,2260,-30301,3716,268438473
13584,344,4604,3135,-31071,4533,268438473
14496,1304,3440,3280,-30259,3072,268438473
15888,1632,2824,4156,-29377,2444,268438473
16632,2240,1756,3618,-31511,4486,268438473
14516,1140,-832,2897,-32768,5571,268438473
14308,-704,-4268,4034,-32768,7112,268438473
14336,-656,-7896,5247,-32768,5961,268438473
15920,-1084,-11068,5090,-32768,4165,268438473
17280,-1412,-12752,4244,-32768,638,268438473
17648,344,-13092,4194,-22615,-307,268438473
15052,184,-12424,1655,-14257,-437,268438473
13800,-84,-13288,173,-10886,6,268438473
13008,-516,-13816,-56,-5502,52,268438473
12136,-944,-14016,327,-1470,-3,268438473
12172,-312,-12984,878,3842,-432,268438473
11292,-204,-12740,-740,7862,-653,268438473
11840,-1084,-12780,-1265,8845,-684,268438473
14884,-216,-12696,-681,14687,-218,268438473
15216,1156,-10532,-3222,22858,-612,268438473
15356,1232,-9604,-6427,30288,-1186,268438473
13744,220,-8948,-8126,32337,-2378,268438473
14696,-1504,-8980,-6128,30984,-1683,268438473
16092,-1716,-8556,-2067,30013,-8,268438473
15948,-468,-6364,893,31460,-445,268438473
15912,560,-2972,1650,32767,-2761,268438473
14800,-8,-428,670,32767,-5487,268438473
14828,-268,2080,1012,32767,-6080,268438473
15756,724,4588,1452,32767,-4603,268438473
15808,2356,5532,853,31643,-2847,268438473
15396,2280,6932,-399,31783,-5521,268438473
12412,824,8436,-347,28164,-7162,268438473
13596,1476,10560,450,25898,-5606,268438473
14012,2352,11316,-444,29319,-4088,268438473
9968,2520,11420,-404,29640,-3111,268438473
8664,2692,13296,208,24703,-2253,268438473
7972,2468,14024,-775,20972,-2042,268438473
8312,2408,14492,-1289,20404,-1317,268438473
6424,1952,14528,-763,23590,-1481,268438473
4396,2572,15064,1132,24823,-3288,268438473
3412,3052,16012,909,22238,-5071,268438473
3600,3128,16212,-436,22106,-4441,268438473
1920,2704,15524,-288,25455,-4270,268438473
-316,2756,15432,472,24946,-3771,268438473
-756,3496,16252,-466,25117,-3963,268438473
-3492,2956,15448,-430,26127,-4495,268438473
-4088,2756,15580,-175,26355,-4971,268438473
-5640,2068,14652,-75,28008,-5339,268438473
-6620,2752,14432,-140,26548,-4542,268438473
-9096,2040,13540,-633,23014,-3167,268438473
-8620,3212,13180,-1205,17349,-1525,268438473
-8512,2616,12732,-2934,19545,-1114,268438473
-10284,1564,11216,-2980,19463,-1254,268438473
-9160,1720,10700,-2439,18605,-1099,268438473
-10784,1660,10284,-1360,21357,-533,268438473
-12156,2228,9836,-2931,21099,-1028,268438473
-12136,1564,8184,-4779,20826,-782,268438473
-12660,1472,6840,-4046,22374,-192,268438473
-14468,892,5816,-3486,24825,-2357,268438473
-17116,-72,3500,-4142,20774,-4386,268438473
-15116,0,2892,-3420,16139,-4539,268438473
-14992,-316,1352,-4250,17112,-5141,268438473
-16792,-1044,-720,-3980,11219,-3029,268438473
-17020,-680,-12,-1374,7518,-1585,268438473
-15560,520,1716,-644,7500,-2349,268438473
-16708,572,2168,-461,6884,-2367,268438473
-16200,-208,1736,-813,4613,-2274,268438473
-14176,-320,1684,-1403,4940,-2055,268438473
-15636,-1280,-904,-1936,4955,-2069,268438473
-16516,-2016,-1704,-1093,1509,-735,268438473
-15848,-1552,-788,-1296,-3090,529,268438473
-15688,-1436,-556,-2167,-7424,1120,268438473
-16524,-1480,40,-2402,-14240,2023,268438473
-16700,-1600,952,-2407,-24457,3207,268438473
-14308,-528,2112,-1787,-32768,1675,268438473
-14908,-84,4008,-1214,-32768,2974,268438473
-15100,-1212,6560,315,-32177,5771,268438473
-16092,-352,7844,1867,-32768,5362,268438473
-15080,20,8496,3073,-32768,5208,268438473
-9876,1340,10444,4543,-32768,2749,268438473
-7168,2200,12612,4852,-32768,1927,268438473
-7344,1640,13636,3387,-32768,2514,268438473
-5660,1168,13596,2510,-32768,2469,268438473
-3852,360,13040,3185,-32768,1811,268438473
1932,1608,14212,5474,-32768,-536,268438473
5020,3404,16700,5518,-31895,-1432,268438473
3888,3608,17352,1639,-28097,-1250,268438473
1720,2892,16096,-48,-32768,506,268438473
8204,2608,14680,-599,-32768,3719,268438473
10972,2924,13344,-1441,-32768,5791,268438473
9016,3096,11932,-2346,-32572,3559,268438473
9176,1560,11888,-2719,-32028,-1309,268438473
11100,168,10448,-3718,-32768,-1771,268438473
15076,1180,6980,-4254,-32768,632,268438473
16016,872,4248,-2614,-31877,1705,268438473
16772,108,4988,1020,-29103,2912,268438473
15548,232,3888,3439,-28593,5109,268438473
15216,1220,3056,5542,-31965,7410,268438473
14396,1048,1524,4698,-32768,8168,268438473
13552,-536,-2104,3120,-32768,7993,268438473
13572,-1048,-4872,2534,-32768,5762,268438473
13864,-2152,-8024,2097,-32768,5166,268438473
16816,-220,-11448,2656,-32768,2588,268438473
17100,72,-11736,977,-26135,-1150,268438473
13700,-1208,-12868,-578,-20500,85,268438473
14320,-1008,-14612,391,-18590,465,268438473
15392,-160,-14024,1437,-9403,208,268438473
12012,192,-12584,9,-2655,67,268438473
11636,-436,-13032,-1762,-3377,-415,268438473
13116,-216,-14412,-2135,3,-906,268438473
13208,-868,-14976,-1654,4478,-236,268438473
11460,-1568,-14712,130,8380,410,268438473
12092,-1472,-13700,2364,10710,429,268438473
13728,-244,-11652,2241,16876,-657,268438473
15896,776,-10440,-721,23759,-1117,268438473
17724,872,-10452,-4254,32305,-2361,268438473
17632,-380,-10556,-5374,32767,-2854,268438473
15956,-1280,-10108,-3207,32767,-2862,268438473
14732,-1548,-6496,-561,32767,-3299,268438473
15476,-1008,-2188,1784,32767,-3883,268438473
15340,-504,1024,1840,32767,-2758,268438473
13808,-212,1280,1158,32767,-5034,268438473
15148,896,4452,3178,32767,-8402,268438473
14128,1344,7912,3215,32767,-8071,268438473
13252,1616,9676,2029,32767,-6600,268438473
10032,1988,10584,1798,32767,-4369,268438473
8668,2592,11920,1654,32413,-3183,268438473
8400,2584,13256,1359,32066,-3969,268438473
7044,3164,15064,1941,32767,-5678,268438473
5288,3480,15688,1033,30506,-5848,268438473
4992,3492,15964,-75,31197,-7294,268438473
3204,2780,15904,-752,32767,-7775,268438473
616,2972,14772,-675,32767,-7669,268438473
-2892,3140,14652,112,32767,-6500,268438473
-3764,3468,15580,-350,27539,-4413,268438473
-3456,3712,15216,-1185,26512,-3850,268438473
-5816,2688,14800,-1231,30217,-5339,268438473
-8408,2348,13608,-500,27536,-5651,268438473
-8300,2364,13604,-1187,23197,-4584,268438473
-8400,1924,12992,-2601,24488,-4193,268438473
-9788,988,11324,-1959,25832,-4459,268438473
-11520,1144,10468,-738,24177,-3870,268438473
-12604,1692,9904,-627,21936,-2701,268438473
-13320,1516,9132,-1699,21106,-2755,268438473
-12952,1004,7888,-2574,20816,-3386,268438473
-11856,808,6232,-3310,20939,-3313,268438473
-12688,52,4540,-3391,23892,-2899,268438473
-14932,44,2804,-1380,23868,-2298,268438473
-16088,636,2092,-29,23151,-2611,268438473
-15816,504,2088,-1790,20832,-4512,268438473
-14324,596,768,-3125,18814,-5109,268438473
-15284,-208,-896,-3595,18985,-5899,268438473
-15128,-1108,-4028,-3558,13264,-4634,268438473
-15200,-1392,-4688,-3438,12324,-3897,268438473
-17480,-2452,-6524,-2331,8524,-2335,268438473
-16104,-2036,-5632,-1161,4385,-1705,268438473
-16848,-2164,-4872,296,1853,-793,268438473
-16980,-1940,-3400,31,-2538,1431,268438473
-16844,-1656,-2588,1221,-2853,655,268438473
-16836,-296,-1288,956,-2743,911,268438473
-17660,164,-1536,-1741,-6959,1869,268438473
-17944,-724,-2220,-3849,-11978,1619,268438473
-18224,-1528,-2912,-5200,-20870,2748,268438473
-16736,-2272,-3044,-5157,-32453,3979,268438473
-14296,-888,-1452,-1957,-32768,3892,268438473
-14912,-412,392,36,-32768,3746,268438473
-15924,-788,2884,1462,-32768,5377,268438473
-13204,824,5240,2892,-32768,4097,268438473
-10180,472,8484,4948,-32768,2604,268438473
-8752,1152,11312,7340,-32768,2235,268438473
-9336,1720,13660,7412,-30262,1519,268438473
-8024,1948,14832,4817,-29578,1703,268438473
-6660,1644,14100,2718,-32768,4909,268438473
-4012,1336,14256,3832,-32768,7097,268438473
-724,2240,15268,4461,-32768,5724,268438473
-212,2756,16704,2807,-31272,3370,268438473
-308,3516,16336,-200,-31702,1432,268438473
1392,3248,15904,-1328,-32768,886,268438473
6024,3488,15780,-1163,-32768,2139,268438473
7136,3480,15136,-891,-29815,4955,268438473
6080,2304,14176,-1317,-29734,5757,268438473
8164,2532,13740,-1680,-30245,2870,268438473
11300,2548,12572,-2858,-27814,-96,268438473
11784,2408,10936,-3652,-24486,-1155,268438473
11976,856,9780,-2838,-24222,-116,268438473
12152,260,9632,-13,-25311,3303,268438473
13060,1100,8576,1206,-28254,5072,268438473
13880,1320,7384,1051,-30816,4708,268438473
15100,128,5452,1854,-30590,5685,268438473
16380,240,3448,3513,-31401,7356,268438473
16112,676,2164,3153,-28065,6231,268438473
14128,296,1704,2505,-30816,5005,268438473
14388,-204,496,2654,-32268,4356,268438473
13564,-540,-2180,2657,-32768,5321,268438473
13500,-1260,-5352,3551,-32768,5362,268438473
14688,-1104,-8616,3101,-32768,4418,268438473
18324,-652,-10176,2648,-32665,1545,268438473
16356,-108,-9936,330,-20704,-937,268438473
13184,-668,-10552,-1005,-16214,-343,268438473
13408,-648,-11244,-1196,-14946,-351,268438473
15588,0,-12376,-1325,-11101,437,268438473
13788,-368,-13016,-1785,-4953,348,268438473
12080,-604,-13512,-2591,-3337,144,268438473
12632,-1408,-13652,-3031,99,-1135,268438473
12884,-1248,-13972,-2647,3304,-812,268438473
12528,-1240,-14428,-1212,4439,46,268438473
13452,-652,-14500,302,5670,8,268438473
14856,-316,-14024,1238,10070,404,268438473
15172,-132,-13096,1746,16817,338,268438473
14120,-568,-11064,1080,21626,-62,268438473
14672,-444,-8680,194,24511,-884,268438473
14664,-608,-7748,-2549,26462,-2039,268438473
15808,-500,-7624,-2981,27846,-3208,268438473
17724,-1080,-6684,-1838,29228,-2626,268438473
17616,-16,-5212,-22,32767,-2108,268438473
15772,556,-2592,-1044,32767,-4179,268438473
15976,-492,-1376,-2103,32767,-6303,268438473
15016,-680,512,399,32767,-6482,268438473
15864,876,3436,3188,32767,-6190,268438473
15840,1980,5908,2865,32767,-6756,268438473
14172,2968,8600,2970,32767,-8913,268438473
10512,2768,10224,1227,32767,-9876,268438473
11828,2336,11536,-1209,32767,-8822,268438473
9868,2440,11148,-1475,32767,-6084,268438473
6636,3032,12344,214,32767,-2077,268438473
4848,3236,14572,152,30040,-967,268438473
4192,3708,16152,-1317,26650,-831,268438473
5212,3656,16640,-2990,25798,-3159,268438473
2676,2876,16920,-2285,26550,-6155,268438473
368,2296,15836,-3269,26153,-7343,268438473
44,2356,15092,-2255,25944,-7996,268438473
-172,2696,15396,-1666,26489,-7292,268438473
-1840,3304,15476,-2184,28366,-6656,268438473
-4372,2020,15684,-2867,29338,-7313,268438473
-6420,1692,14724,-3480,26545,-5933,268438473
-7004,1668,14340,-4067,23186,-3507,268438473
-8108,984,13628,-5139,22230,-2394,268438473
-9152,456,12136,-4796,20799,-2289,268438473
-9352,-260,11684,-3539,21855,-2898,268438473
-10292,-132,11216,-2431,23053,-2700,268438473
-11744,1132,11032,-3045,21511,-1920,268438473
-11948,768,10280,-5486,20147,-1189,268438473
-13056,-308,8692,-6031,18049,468,268438473
-13148,-440,7260,-6565,17678,1038,268438473
-13240,-616,5912,-6976,19461,-416,268438473
-15428,-1408,4320,-4399,19877,-1382,268438473
-14508,-820,4248,-1369,17939,-3364,268438473
-13992,-276,4284,-2467,19613,-5543,268438473
-15236,-2332,1592,-3808,17459,-5935,268438473
-14352,-2528,788,-1090,13382,-4044,268438473
-14864,-1604,1232,-707,12698,-2641,268438473
-16456,-2020,-756,-1860,10139,-921,268438473
-15836,-2412,-1484,-1737,6742,-59,268438473
-15344,-2376,-1384,-1283,5524,882,268438473
-15688,-2184,-2376,-569,5686,1972,268438473
-17424,-1748,-2364,322,3794,1527,268438473
-18204,-1224,-2024,-26,1625,67,268438473
-17360,-2120,-2152,-467,-2444,84,268438473
-15772,-2340,-1628,269,-2851,228,268438473
-17120,-2264,-1256,413,-5531,1662,268438473
-17072,-2476,-684,-712,-10277,2091,268438473
-17088,-2952,-80,-1433,-17694,2110,268438473
-17348,-2728,1176,-1338,-32322,1470,268438473
-13416,244,2184,-1577,-32768,397,268438473
-14296,-2304,5592,-1626,-22801,4351,268438473
-17252,-1796,5208,793,-23497,3726,268438473
-17076,-1456,6100,3926,-30654,2136,268438473
-11164,216,8112,4347,-32768,-789,268438473
-8540,544,10436,1857,-31992,1338,268438473
-10100,-860,11160,1085,-26976,5245,268438473
-10608,-784,11800,2637,-32768,5414,268438473
-7120,92,14076,4744,-32768,4019,268438473
-5140,1940,15268,3315,-32768,1720,268438473
-2972,1832,15684,-822,-32768,4432,268438473
-1812,-196,15268,-490,-32696,6569,268438473
-2388,-632,14212,1268,-32768,4742,268438473
1924,-60,14740,2173,-32768,2337,268438473
5484,1176,15436,1529,-26376,365,268438473
5060,1068,15328,882,-21697,-1243,268438473
6132,1532,15132,985,-19321,-999,268438473
5600,1652,15116,573,-20984,442,268438473
8608,1304,13792,-676,-24433,1625,268438473
7788,1004,13108,-889,-22410,4897,268438473
8504,-256,12756,-460,-28591,5102,268438473
9696,396,12136,-578,-29833,4056,268438473
12280,376,10944,-1295,-30111,475,268438473
15116,680,10236,-2182,-25635,-876,268438473
13492,88,7740,-1625,-24402,36,268438473
14268,92,7436,1157,-26676,1785,268438473
15004,-256,6552,1679,-32768,5401,268438473
17428,-208,3908,679,-32361,5476,268438473
18384,-44,1412,-1295,-23702,2528,268438473
16796,-368,796,-1150,-18566,1334,268438473
14508,-1180,40,1417,-26449,4002,268438473
17788,-1160,-1160,3006,-29079,6013,268438473
17500,-768,-2508,1068,-23151,4194,268438473
13648,-1252,-3048,-842,-21339,2212,268438473
8772,-3320,-3856,-762,-32191,3492,268438473
17088,-2248,-8528,1615,-32768,6473,268438473
20884,116,-9724,-1362,-22721,1608,268438473
11924,-1628,-9140,-4545,-14827,1120,268438473
10912,-2920,-11716,-3551,-26776,3259,268438473
16948,-808,-13804,-2153,-22234,1600,268438473
15448,-368,-12304,-4412,-7971,706,268438473
9544,-804,-11572,-6744,-7984,1823,268438473
10360,-912,-13740,-7750,-9532,-786,268438473
13032,-1064,-15512,-7888,-4753,-1864,268438473
12256,-1584,-16252,-5968,1294,-1539,268438473
10840,-1316,-16376,-2886,3586,-702,268438473
10984,-1516,-15708,1243,5283,-631,268438473
12232,-1148,-13708,3971,9866,163,268438473
12040,-220,-12448,3921,11843,143,268438473
12168,-144,-11308,2275,10869,-739,268438473
13912,-272,-11268,1886,11941,-901,268438473
15960,228,-10676,2527,18452,-1441,268438473
14704,-28,-10028,1088,25245,-1377,268438473
13288,-780,-9120,803,23520,-1543,268438473
15032,-564,-7336,770,23124,-1946,268438473
16436,-1140,-6500,-980,24076,-2238,268438473
17052,-1312,-6248,-1346,27014,-3437,268438473
16712,-1160,-4988,-688,28545,-3999,268438473
17804,-664,-3436,585,27169,-4475,268438473
20196,-404,-1972,1946,29675,-3590,268438473
18696,1032,-44,3035,32767,-3237,268438473
16740,1212,3144,3004,32767,-4892,268438473
15280,1256,5616,1106,32767,-6471,268438473
14532,1128,6868,-942,32767,-6039,268438473
12904,1812,7676,-1520,32767,-6847,268438473
11860,2300,9608,-2001,32767,-8864,268438473
9428,1608,11008,-2498,32767,-10943,268438473
7048,1580,12992,-1104,32767,-9990,268438473
5232,2324,14048,-887,32767,-8337,268438473
2972,2588,15544,-1245,29776,-6613,268438473
3316,2840,15956,-3458,25848,-5428,268438473
1384,1452,15236,-3184,26056,-4537,268438473
80,1540,14832,-838,25019,-4223,268438473
296,2372,15888,-433,25077,-4680,268438473
-1376,1716,15312,-1907,27582,-6538,268438473
-3224,1572,14656,-2264,30262,-6735,268438473
-5928,1856,14504,-1567,29922,-4037,268438473
-6808,2596,14400,-2450,27020,-1853,268438473
-7236,2048,13448,-4321,25805,-1830,268438473
-10260,332,11892,-4840,26413,-1312,268438473
-12396,-844,10436,-3598,24033,-2216,268438473
-10000,-164,11960,-1559,21722,-1354,268438473
-9908,1700,12956,-1953,22535,715,268438473
-12104,1956,11452,-5050,22537,1126,268438473
-14820,640,8356,-7191,19488,977,268438473
-14516,196,5900,-6960,15945,1397,268438473
-14292,-376,5020,-5738,16853,692,268438473
-14280,-584,5064,-4678,17776,684,268438473
-14740,12,4660,-4174,16725,1665,268438473
-15048,-40,3980,-5167,14973,865,268438473
-14924,-788,2528,-5054,13366,-678,268438473
-14752,-1160,1244,-3312,13798,-2066,268438473
-15856,-672,348,-2704,9497,-1530,268438473
-15248,-672,380,-2606,8007,-1227,268438473
-16092,-336,84,-1740,6556,-1108,268438473
-17128,-940,-964,-1378,2677,-530,268438473
-15720,-1116,-692,-1157,795,5,268438473
-17324,-1212,-324,-244,-2336,1174,268438473
-16444,-244,844,-485,-5103,921,268438473
-17056,-356,1600,-1434,-8059,955,268438473
-18084,-276,1832,-3443,-14824,1706,268438473
-18688,-636,2320,-5569,-26249,3491,268438473
-16092,-1284,2596,-5275,-32768,2445,268438473
-14984,-1264,3644,-3505,-32768,1833,268438473
-14452,-1788,6132,1110,-32768,3150,268438473
-14652,-56,8684,5272,-32768,1530,268438473
-12972,892,11008,3588,-32768,640,268438473
-9476,2744,11728,689,-32768,1045,268438473
-5032,2628,13872,-1354,-32768,3361,268438473
-5528,932,14360,-1667,-32768,3198,268438473
-4536,-416,14240,-72,-32768,1719,268438473
-3264,-1012,13828,1475,-32768,-136,268438473
-576,-384,13340,2083,-32768,-2609,268438473
3832,1020,13696,2332,-32768,-4317,268438473
5496,1832,15068,1607,-27270,-4610,268438473
6836,2152,15940,615,-24499,-4014,268438473
6240,3128,15380,-489,-27974,-2358,268438473
7304,1908,14052,-666,-32768,-385,268438473
9520,1772,12148,-1695,-32768,235,268438473
10180,1012,10600,-1933,-31573,-1344,268438473
12968,396,10232,-1871,-29597,-3490,268438473
12760,-52,8972,-1074,-28165,115,268438473
13536,-400,6780,1029,-30606,3061,268438473
16060,140,5504,3929,-32615,4547,268438473
16520,212,4508,5766,-30797,6789,268438473
16104,320,3676,6220,-26866,5893,268438473
15548,56,3192,6958,-27925,6462,268438473
16404,656,2132,6937,-30284,7622,268438473
17224,1016,836,4594,-27648,6214,268438473
16396,112,-880,1490,-27383,5345,268438473
15424,-184,-3588,-46,-26115,3978,268438473
12824,-2792,-5036,-1039,-27796,2554,268438473
13588,-3172,-7892,-61,-32768,3556,268438473
14896,-2020,-9704,1609,-29206,1642,268438473
11972,-1460,-10620,881,-29302,432,268438473
15552,-140,-12448,-47,-30921,764,268438473
18648,224,-12708,-3619,-19548,102,268438473
12964,-1124,-14424,-6120,-12405,1927,268438473
10936,-2588,-16208,-4279,-12107,1901,268438473
12260,-1652,-15856,-758,-6226,437,268438473
12248,-696,-13972,-126,1445,-606,268438473
10792,-764,-13948,-1532,4637,-338,268438473
11168,-928,-15120,-1108,2707,116,268438473
12984,-920,-15896,506,6085,327,268438473
14628,-896,-15116,1383,14406,303,268438473
15576,300,-13400,106,30196,-1531,268438473
9932,-1532,-11832,-499,32566,-2985,268438473
13380,-2080,-9680,2489,26951,-3166,268438473
17404,-256,-7940,2748,29463,-1262,268438473
16696,496,-7564,205,32767,-1446,268438473
15200,-200,-5580,-1081,32767,-3585,268438473
15740,-1552,-3748,-1453,32060,-4359,268438473
16980,-2116,-2616,809,32767,-3456,268438473
15912,-736,-208,3976,32767,-4666,268438473
12908,1008,3460,3728,32767,-7599,268438473
14800,1932,7332,2240,32767,-9370,268438473
17160,1508,8580,-18,32767,-8405,268438473
15420,2068,8592,-399,32767,-8248,268438473
11528,1804,9776,-722,32767,-6692,268438473
9052,1572,10604,-1261,32767,-7062,268438473
7120,1968,12896,-706,32767,-7413,268438473
6700,2468,14940,-974,32218,-6445,268438473
6252,2144,14996,-1201,32767,-7593,268438473
2524,3148,15916,44,32767,-7827,268438473
1600,3300,16576,-1915,32767,-6442,268438473
-860,2952,16112,-3356,32447,-5101,268438473
-3036,1916,14708,-3980,29559,-3419,268438473
-5276,1356,14808,-2547,27374,-2825,268438473
-5092,1780,15088,-3102,29450,-3395,268438473
-8080,1120,14724,-1933,30518,-5563,268438473
-7752,1184,13852,-1196,27358,-6449,268438473
-6956,1068,13872,-1785,25423,-5170,268438473
-8236,468,12220,-2899,26668,-3678,268438473
-9432,-8,11048,-3358,26775,-2373,268438473
-11412,-232,9664,-2923,25570,-1215,268438473
-13152,-436,8148,-2733,23262,-1031,268438473
-12816,84,7208,-2114,20345,-903,268438473
-13224,264,6584,-1644,20751,-425,268438473
-13376,228,5376,-2093,21666,-1114,268438473
-16176,-1140,3244,-1010,19855,-1349,268438473
-14716,-60,4056,426,18346,-2110,268438473
-16336,-28,3384,326,19465,-2631,268438473
-17316,436,2592,-1898,14327,-1616,268438473
-16476,80,1232,-3727,11913,-1181,268438473
-15928,-656,-84,-4888,11208,-2059,268438473
-15268,-1772,-2132,-4539,9697,-1137,268438473
-15324,-1376,-3084,-2780,8691,-1280,268438473
-16340,-808,-3676,-2290,7288,-1456,268438473
-15904,-780,-3728,-2179,3887,-1705,268438473
-15896,-1512,-3768,-872,1749,-756,268438473
-15476,-1164,-3028,52,-952,208,268438473
-16716,-680,-2292,-487,-4611,584,268438473
-17244,-624,-1492,-2270,-10260,166,268438473
-15884,-968,-348,-4101,-15964,291,268438473
-16432,-1604,-676,-4468,-19731,2092,268438473
-17620,-2076,-124,-2558,-28125,3567,268438473
-15444,-1364,2040,-967,-32768,2400,268438473
-16796,-624,2532,-710,-32768,2881,268438473
-15264,-1204,4648,2876,-32768,2980,268438473
-10980,104,7176,4468,-32430,559,268438473
-10360,516,8832,5252,-31987,325,268438473
-12016,1980,9724,5647,-32768,3091,268438473
-10268,1020,13468,5103,-29230,4754,268438473
-9004,1284,14264,2703,-31406,3076,268438473
-5944,1216,14252,2087,-32624,2788,268438473
-3864,1364,14372,2808,-32576,3314,268438473
-2988,2160,16216,2951,-29064,2856,268438473
-2888,1720,16468,1039,-28819,2967,268438473
-2088,1032,16000,606,-30542,3136,268438473
240,1296,15224,1279,-30768,3070,268438473
4008,1988,15812,1568,-27217,2340,268438473
4012,1908,15372,56,-25316,1883,268438473
4832,2036,14928,-1061,-24612,1902,268438473
5160,1576,14184,-1443,-28027,2857,268438473
8092,1308,14444,-467,-28077,4421,268438473
8648,2224,13608,-1216,-26326,4254,268438473
8712,1532,12960,-1874,-31826,4325,268438473
12656,1056,11024,-1988,-30722,2704,268438473
12412,924,8416,-2459,-26796,2592,268438473
12792,-484,7704,-1846,-26753,2716,268438473
13552,-472,7208,670,-29169,4968,268438473
16712,164,5552,3370,-30985,7621,268438473
17716,632,2888,3624,-27301,7661,268438473
15892,-548,3012,3563,-24872,6020,268438473
13920,-1516,2976,3791,-26545,7136,268438473
16180,-1640,500,4696,-30071,8807,268438473
16300,-1692,-1116,4798,-27780,7504,268438473
16356,-1840,-2760,4260,-24727,5711,268438473
16948,-1716,-3544,4262,-19694,4218,268438473
18112,-1808,-4632,2981,-13970,3141,268438473
18076,-1496,-5480,1533,-5460,1136,268438473
16164,-1540,-5516,76,-1060,-546,268438473
16664,-1828,-5428,-540,-1238,-832,268438473
17156,-1964,-5352,191,-2345,630,268438473
18352,-1776,-6268,810,-1369,1596,268438473
17700,-1896,-6128,674,3297,828,268438473
17756,-1992,-5668,-357,9955,-1378,268438473
16880,-2416,-4912,-2164,17140,-3558,268438473
16800,-2616,-4048,-2890,19157,-4734,268438473
17216,-1996,-3368,-1220,18642,-3297,268438473
18208,-1820,-2464,-867,20936,-4201,268438473
18472,-1348,-636,-2663,26391,-6041,268438473
16396,-1496,772,-3917,31519,-7354,268438473
15232,-1944,2324,-3509,30843,-8738,268438473
15380,-1672,4640,-1941,31395,-7905,268438473
15592,-540,7040,-740,32767,-5264,268438473
14276,784,8380,-910,31932,-3768,268438473
11792,1000,8828,-1973,29466,-4637,268438473
11804,-60,10212,-2074,29938,-6986,268438473
10392,372,11792,-2107,31200,-6208,268438473
8432,-40,12368,-2483,29880,-3689,268438473
6092,92,13068,306,27340,-2222,268438473
5580,1092,15632,292,23542,652,268438473
5172,1064,16624,-1861,21759,2238,268438473
4592,732,16084,-2279,23407,-439,268438473
3456,124,16224,-999,27369,-4197,268438473
2040,880,16024,-884,28641,-4959,268438473
272,364,15132,-918,28508,-4290,268438473
-1492,548,15012,551,26310,-2432,268438473
-2420,976,15360,-76,23106,-404,268438473
-3320,456,15088,-1112,21139,217,268438473
-2968,-76,14776,-2163,23364,-1129,268438473
-5656,-928,13616,-642,26288,-2342,268438473
-6524,-444,13220,992,26397,-2840,268438473
-8396,-320,13132,1930,27278,-2825,268438473
-10360,536,12856,1404,26564,-2867,268438473
-12492,-112,11708,530,23814,-3090,268438473
-12504,356,10296,-88,18752,-2644,268438473
-12024,-192,9264,-762,17014,-2364,268438473
-13420,-708,8276,172,15925,-1828,268438473
-13564,-252,8620,1803,13389,-2082,268438473
-11808,660,9504,1563,13235,-2522,268438473
-12368,260,8240,-1443,12324,-2501,268438473
-13896,-1236,6480,-2478,11699,-920,268438473
-14976,-1168,5352,-850,13518,-596,268438473
-14644,-360,5512,1446,17118,-2167,268438473
-15160,204,5860,1300,20187,-3933,268438473
-14760,168,4392,-1177,16510,-3173,268438473
-15368,-1172,2612,-2548,14407,-2827,268438473
-14976,-1532,864,-3159,13500,-3411,268438473
-15636,-3088,-1292,-2319,11507,-1818,268438473
-15816,-2388,-1308,-1595,8482,-343,268438473
-17380,-1632,-788,-1166,7277,-467,268438473
-18100,-2076,-1208,-1810,3778,-1085,268438473
-16384,-3368,-1852,-1364,-82,-763,268438473
-14876,-2524,-1140,385,-546,-666,268438473
-15540,-2256,-1148,112,-2668,598,268438473
-17012,-2816,-1504,150,-6781,1889,268438473
-17436,-2556,-700,797,-13685,2481,268438473
-17212,-2160,332,1261,-20640,2952,268438473
-17508,-2372,1420,2162,-29031,4000,268438473
-15952,-1900,2864,4112,-32768,3528,268438473
-12536,-1240,4956,6223,-32768,2392,268438473
-12156,128,7408,6397,-32768,2115,268438473
-12720,-208,8668,3473,-32768,3412,268438473
-12296,-488,8900,2848,-32768,5859,268438473
-7080,1100,12120,5788,-32768,3974,268438473
-5648,2236,15052,6281,-32078,-377,268438473
-7860,1860,14956,4453,-32188,-2650,268438473
-5384,868,14604,3837,-32768,248,268438473
1312,1724,14648,2031,-32768,3613,268438473
4484,2164,14880,1550,-32768,4052,268438473
3176,1660,15680,2364,-31144,2069,268438473
3748,1812,15628,2405,-31229,616,268438473
6768,1212,14856,1635,-32768,2684,268438473
8360,1156,13304,1895,-32768,5916,268438473
9504,1952,12740,3212,-29165,5962,268438473
9304,1908,13108,2744,-26550,3832,268438473
9728,1380,12192,1306,-26385,4,268438473
11068,-248,9688,605,-29308,-783,268438473
14120,1728,6868,2104,-30006,-644,268438473
17000,2896,6620,4687,-26205,1858,268438473
15404,2152,6620,2648,-23957,3779,268438473
15120,1512,6464,655,-23663,3324,268438473
15888,1788,5484,1096,-24247,5037,268438473
15524,1260,2884,1478,-25737,7154,268438473
13804,1008,1152,1332,-31637,8108,268438473
14832,-204,-224,629,-32768,7769,268438473
16120,-892,-3344,331,-32768,7506,268438473
16860,-284,-5396,1741,-32518,6284,268438473
17476,252,-5624,2642,-28268,5555,268438473
16904,-12,-6752,-23,-24240,4333,268438473
16232,-368,-9364,-2859,-23684,3517,268438473
16220,-1284,-10560,-3735,-17602,1405,268438473
14376,-1952,-10968,-3820,-10666,-53,268438473
14080,-1920,-12004,-2295,-8542,291,268438473
15060,-1588,-12100,-50,-5285,301,268438473
15284,-332,-11984,1030,-247,201,268438473
15532,-684,-12352,254,3257,12,268438473
14996,-1352,-11812,848,7516,-144,268438473
14588,-1472,-10832,1646,12292,-639,268438473
15944,-704,-9860,1644,17833,-1351,268438473
17916,-480,-9420,406,25218,-2221,268438473
16716,-904,-8808,38,32652,-2156,268438473
14952,-584,-6204,1437,32767,-3608,268438473
16636,-1044,-4032,76,31412,-3698,268438473
17156,-1044,-2028,-275,32767,-3770,268438473
15564,-12,-356,-1161,32767,-4845,268438473
14380,28,1916,-748,32767,-6785,268438473
15824,144,5076,-321,32767,-5571,268438473
15600,1060,6284,-864,32767,-2136,268438473
13280,1464,7300,-279,32413,-2758,268438473
11500,764,9240,5,30556,-4366,268438473
11044,632,10784,-1632,27806,-3691,268438473
11364,1100,11524,-2500,26838,-1968,268438473
9152,652,12476,-1358,28092,247,268438473
7348,904,13648,-587,26878,1224,268438473
6840,1028,14680,-624,26797,254,268438473
5964,668,15952,-458,29527,-611,268438473
4420,1072,16456,-1034,30224,168,268438473
2340,420,15152,-2563,26929,708,268438473
2068,-388,15384,-1080,23749,-722,268438473
1240,212,16452,1416,25236,-2192,268438473
-776,1324,17412,1451,27948,-2467,268438473
-2476,704,16756,1409,27460,-4966,268438473
-3816,512,15904,2925,27110,-6499,268438473
-4472,304,14876,2948,28080,-7004,268438473
-5320,292,14504,2453,27744,-6857,268438473
-6312,640,14128,1994,25949,-5584,268438473
-6660,712,13448,993,27172,-3767,268438473
-9920,1836,12556,841,29932,-2705,268438473
-13508,2656,12060,-999,26305,-2956,268438473
-13252,2568,11708,-3526,21906,-4241,268438473
-11760,1140,9224,-6400,21304,-4728,268438473
-11864,-1228,5552,-6909,20687,-3781,268438473
-13468,-2564,3960,-4262,20080,-2370,268438473
-13556,-1648,4300,-2391,18148,-1971,268438473
-12932,-732,5488,-2468,17588,-2265,268438473
-14888,-1360,4724,-3534,17367,-1832,268438473
-14992,-2120,4092,-3490,14404,-1838,268438473
-13668,-1292,3172,-3227,15865,-3525,268438473
-15996,-1260,1924,-3988,15846,-4149,268438473
-18156,-3108,-2076,-5755,9579,-1718,268438473
-16048,-3468,-2776,-5123,2654,88,268438473
-15316,-3524,-3584,-2185,3553,-450,268438473
-16208,-3304,-3508,-100,532,129,268438473
-15340,-2664,-1348,1403,-1934,229,268438473
-16044,-1716,-596,838,-3194,1181,268438473
-16872,-1668,316,458,-4011,1484,268438473
-17248,-1632,656,222,-5529,1794,268438473
-17200,-1776,424,-201,-9130,2247,268438473
-16952,-2404,784,-137,-11607,2058,268438473
-16316,-1700,1484,-344,-18435,2916,268438473
-15360,-1612,3280,-2283,-24872,4076,268438473
-16012,-2536,3692,-3134,-32768,6015,268438473
-16012,-2660,4132,-353,-32768,5943,268438473
-13668,-1148,7368,4730,-32768,1767,268438473
-11284,1552,9428,5601,-28851,-2348,268438473
-12704,1588,10972,5022,-27081,-1728,268438473
-12060,1212,12388,4220,-32768,276,268438473
-9104,648,13304,1679,-32768,2321,268438473
-4276,52,14276,-208,-32768,2784,268438473
-3336,-524,14600,833,-29570,346,268438473
-3632,-748,14628,1801,-28814,-815,268438473
-2284,-664,14192,2466,-32768,233,268438473
116,-76,14560,3281,-32768,1904,268438473
3552,1052,15608,3222,-32768,2339,268438473
2920,1468,15704,1746,-29771,2954,268438473
4400,936,15060,1669,-32768,2808,268438473
5356,684,14828,1181,-32768,3346,268438473
7948,1024,13280,134,-32768,3484,268438473
10160,1208,12840,115,-32726,1182,268438473
9152,1640,12224,-923,-29710,-1543,268438473
9976,72,10692,-2586,-32768,-454,268438473
10276,-372,7700,-2751,-32768,6742,268438473
15748,-2784,-472,-1762,-32768,13131,268438473
20204,-1592,-2064,3427,-32768,10206,268438473
18296,-1772,-1664,6823,-30767,4164,268438473
18632,-1124,-556,5220,-20098,1754,268438473
16528,-1212,-1184,3418,-16245,1099,268438473
15852,-396,-2928,2051,-19734,2175,268438473
17652,-176,-3996,744,-20266,1604,268438473
17232,-1184,-5104,-158,-17417,926,268438473
15216,-1688,-6000,417,-16869,998,268438473
14452,-2316,-6668,668,-18358,1578,268438473
14616,-2204,-7532,253,-18035,1564,268438473
14948,-1732,-8516,-226,-18019,445,268438473
17028,-624,-9308,-1316,-12718,-182,268438473
16132,-848,-10520,-3639,-7082,-779,268438473
14936,-1824,-11792,-3099,-5470,-271,268438473
14768,-2252,-12444,-786,-3742,244,268438473
14916,-2088,-11164,1176,1151,-46,268438473
14344,-1184,-9904,1443,4232,40,268438473
14464,-816,-9784,500,4633,-57,268438473
15116,-1520,-10756,-83,5399,232,268438473
17080,-1576,-11428,805,10218,40,268438473
18580,-984,-10680,826,20702,-238,268438473
17820,-1244,-8116,151,32767,-1969,268438473
15828,-1724,-6596,-2261,32767,-3281,268438473
14428,-2324,-4320,-1514,32767,-4777,268438473
16076,-2192,-2496,1465,32767,-4292,268438473
16504,-432,-148,3318,32767,-3530,268438473
15484,468,2540,3356,32767,-4650,268438473
14704,256,4256,1501,32767,-6318,268438473
13540,-180,5672,1013,32767,-7926,268438473
13372,172,7600,1087,32767,-8710,268438473
12272,1404,9940,1115,32767,-10437,268438473
11140,1236,12392,-131,32767,-9955,268438473
7348,1260,13756,197,32767,-6887,268438473
6540,1916,15292,-509,31481,-2320,268438473
6940,1760,15536,-2897,29542,457,268438473
4868,1128,14496,-2712,31036,-1715,268438473
1296,344,14760,-558,29980,-4306,268438473
1720,1388,15508,-786,25828,-3702,268438473
-892,1764,16328,-271,26288,-2472,268438473
-2356,2388,16728,-536,22951,-1784,268438473
-3068,2180,16196,-3087,23648,-2509,268438473
-6192,1244,14864,-3036,24444,-2592,268438473
-4496,524,14244,-3179,26062,-5618,268438473
-5092,-752,13216,-1822,28363,-7620,268438473
-4904,-528,12388,-764,31500,-7670,268438473
-8796,-664,11620,1717,32767,-6475,268438473
-12156,712,10752,2073,30569,-4499,268438473
-12740,1696,11716,984,27767,-3969,268438473
-13104,1504,10808,-2109,26269,-4604,268438473
-13296,280,7728,-4631,21433,-3757,268438473
-13460,-1396,6564,-4522,20176,-2266,268438473
-14644,-920,5220,-3395,20514,-1860,268438473
-15236,-784,4512,-3685,17370,-3663,268438473
-14712,-2816,3804,-2439,14788,-3503,268438473
-13776,-2572,3316,-738,14543,-806,268438473
-15160,-1940,2492,-1983,12837,-581,268438473
-15728,-2640,240,-2738,9166,19,268438473
-15468,-2428,-1000,-1772,7783,1056,268438473
-16944,-1968,-64,232,5187,1779,268438473
-17572,-956,276,228,2562,885,268438473
-17340,-1196,964,-1202,17,164,268438473
-15752,-2004,328,-1583,-1893,-479,268438473
-15068,-1820,472,-447,-1198,123,268438473
-16792,-1876,700,441,-907,813,268438473
-17080,-1300,760,560,-1983,341,268438473
-16204,-1148,916,-369,-4524,430,268438473
-15516,-1600,1148,-1242,-7450,1116,268438473
-16248,-2272,1124,-2482,-13382,2590,268438473
-14932,-2008,1256,-3858,-24464,5139,268438473
-15196,-1692,1984,-4331,-32280,6995,268438473
-14872,-1472,4240,-2094,-32768,7070,268438473
-14740,-416,6604,1326,-32086,4392,268438473
-14048,348,8744,2867,-32315,1961,268438473
-12728,432,10032,3019,-32768,1747,268438473
-9160,2624,11548,1800,-32768,2843,268438473
-5872,1268,14048,422,-32768,4376,268438473
-9168,716,14152,-648,-32768,4594,268438473
-9280,-72,13804,281,-32768,2718,268438473
-1940,1084,14320,1953,-32768,974,268438473
1948,1528,15252,1689,-32768,723,268438473
1888,900,15692,1796,-32768,265,268438473
2320,772,15264,1462,-31679,-552,268438473
4716,332,14332,566,-32768,-1806,268438473
8480,872,13272,244,-28742,-1378,268438473
8956,920,13396,1208,-24733,-343,268438473
8312,1592,13364,936,-23681,477,268438473
9636,808,12728,378,-26905,2878,268438473
12088,1064,11188,724,-30475,4708,268438473
12916,704,9464,644,-28027,5134,268438473
11544,364,8916,367,-28352,4439,268438473
12380,-1624,7960,1749,-32768,5249,268438473
16696,1140,4816,2989,-32768,7468,268438473
18932,-8,2244,3869,-31420,7598,268438473
17160,552,1220,4340,-23385,4562,268438473
17220,-484,2092,4363,-20238,3754,268438473
16636,-228,1160,3485,-18126,4058,268438473
15872,-548,540,2545,-15915,2297,268438473
16756,-584,-868,1909,-16918,2673,268438473
17160,-232,-2204,1229,-14226,3004,268438473
16752,-852,-3116,5,-12622,1968,268438473
16916,-884,-2900,-888,-8873,1011,268438473
16456,-552,-3616,-578,-7144,900,268438473
17576,-900,-4560,-617,-4988,444,268438473
18200,-1084,-5492,-800,-1316,-322,268438473
18744,-1308,-5672,-435,3224,-650,268438473
17904,-1788,-5652,-117,8851,-1005,268438473
17420,-1512,-4012,529,12739,-1468,268438473
17596,-1152,-2820,935,16898,-1400,268438473
19724,128,-676,698,23782,-2999,268438473
19760,188,-172,-1229,29917,-4610,268438473
18300,8,1440,-1503,32767,-5912,268438473
14172,-676,2916,-2294,32767,-7091,268438473
14468,-1264,4944,-1311,32093,-9166,268438473
16236,-592,6472,-36,32767,-8178,268438473
16420,1356,8564,-331,32767,-7254,268438473
11912,2284,10024,-333,32767,-7769,268438473
8760,1868,11612,294,32767,-8570,268438473
7908,2200,13460,111,32767,-7884,268438473
6220,1796,14244,-87,32767,-6728,268438473
2144,1888,14104,-518,32767,-6767,268438473
-576,1704,14688,-299,32532,-6624,268438473
204,2252,14992,-1018,27987,-5182,268438473
-1828,1960,15408,-1223,28217,-4047,268438473
-2956,2244,15040,-1668,25853,-4557,268438473
-4352,1220,15396,-1517,24992,-5034,268438473
-6108,1144,14804,-1001,22950,-3652,268438473
-4980,1480,14164,-2181,20483,-2515,268438473
-6104,240,13572,-2003,21930,-1908,268438473
-7888,352,12784,-690,22759,-1621,268438473
-8716,668,12652,97,24174,-2116,268438473
-10392,920,11672,202,26636,-2676,268438473
-12212,1564,10516,105,25753,-2311,268438473
-12420,1520,9440,-1169,24931,-2605,268438473
-13416,840,8056,-1286,24224,-2494,268438473
-12044,860,7096,-1217,23964,-2553,268438473
-13436,704,5608,-1500,25045,-2750,268438473
-15064,-432,3796,-1879,23532,-3378,268438473
-15764,-792,2144,464,21748,-3481,268438473
-14440,-216,960,1067,18691,-5443,268438473
-16208,-1004,1016,1074,12368,-6502,268438473
-15052,-1836,1208,-725,5100,-1717,268438473
-14712,-1360,924,-2731,4602,507,268438473
-16116,-1372,-240,-2191,6178,-247,268438473
-15264,-1116,-1028,-2137,4507,97,268438473
-15204,-912,-1744,-2210,2658,2089,268438473
-17556,-596,-2524,-590,2046,2174,268438473
-17680,-116,-708,500,-1250,1612,268438473
-17156,332,1264,700,-363,283,268438473
-16808,108,1456,-1417,-894,-477,268438473
-17380,-1384,-336,-2836,-4199,-170,268438473
-16704,-2140,-1316,-2391,-6736,491,268438473
-16252,-1424,-44,-1903,-11107,1573,268438473
-18048,-520,932,-2310,-17801,2894,268438473
-18864,-1040,2160,-3024,-27048,4319,268438473
-15548,408,4252,-2199,-32768,2643,268438473
-13496,-1016,6108,-2335,-31443,-137,268438473
-14524,-2056,4732,-1922,-32768,1937,268438473
-14060,-440,5100,755,-32768,4845,268438473
-10388,556,9624,3354,-32768,5542,268438473
-8788,2412,11776,2655,-32768,2850,268438473
-9532,1424,13168,1869,-32768,1609,268438473
-7748,652,13264,1657,-32768,1431,268438473
-3464,1920,13924,185,-32768,6037,268438473
-344,1172,14632,-1542,-32768,9407,268438473
-756,16,13956,-2021,-32768,8457,268438473
112,-352,13964,497,-32768,4181,268438473
4388,1016,14712,2295,-32768,243,268438473
8184,1100,15816,399,-32768,2521,268438473
8076,1316,13456,-1051,-32768,5259,268438473
7580,44,10680,-1181,-32768,5340,268438473
9068,-1164,9416,143,-32768,4637,268438473
15320,132,8456,940,-32768,2652,268438473
16700,1268,6972,-25,-31030,2471,268438473
15740,-16,5272,-1176,-27142,2775,268438473
15556,-1504,3368,-876,-31327,5913,268438473
17132,-1640,1156,60,-30956,8186,268438473
18072,-828,908,1337,-24491,6215,268438473
17376,-412,1336,-45,-17764,3103,268438473
16228,-416,1352,-1876,-16970,2195,268438473
19060,-544,-720,-1945,-19068,4350,268438473
19180,-216,-2604,-712,-14911,4974,268438473
17804,-1816,-3464,-568,-10307,3046,268438473
16456,-2620,-3908,-1371,-4646,334,268438473
17160,-2376,-3660,-810,-1738,-986,268438473
18672,-1648,-3976,-182,1960,-864,268438473
18244,-1084,-3172,1058,4448,-459,268438473
17984,-1276,-3304,1459,5943,-119,268438473
17200,-2060,-3592,911,8817,-403,268438473
16868,-2916,-3432,358,12847,-1631,268438473
16892,-2304,-1884,1003,19582,-3057,268438473
16996,-1244,328,2839,24421,-4036,268438473
17644,-576,2864,2223,27008,-5227,268438473
17916,592,4108,1627,28680,-5455,268438473
18044,148,5832,934,30828,-3804,268438473
15624,-176,6356,819,32084,-1753,268438473
13684,-1036,7208,777,32767,-3262,268438473
12044,-576,8036,1463,32767,-6560,268438473
10508,4,10596,3265,32767,-7959,268438473
9448,988,12580,3099,32767,-5838,268438473
8292,1872,14612,2757,30066,-3265,268438473
6976,1852,15488,1342,29951,-3255,268438473
5368,1100,15700,1013,31846,-5410,268438473
3960,748,14776,1359,30639,-6687,268438473
2864,936,14976,983,28930,-5967,268438473
1204,1044,15512,1815,28155,-5594,268438473
-100,1488,16188,2327,28331,-5548,268438473
-2128,1968,16420,2529,32023,-6202,268438473
-2588,2352,15784,1698,32767,-7763,268438473
-4724,1456,14076,1269,32767,-7596,268438473
-5668,1376,12916,771,32767,-5584,268438473
-9556,1064,11404,836,32767,-3663,268438473
-11108,1680,10816,1046,30693,-3970,268438473
-12448,1148,8984,1452,29583,-4674,268438473
-13576,1428,9060,1342,26274,-5294,268438473
-14200,1788,8428,-505,21187,-3747,268438473
-12368,1380,7964,-3289,18363,-3681,268438473
-13308,-48,5488,-3843,18916,-4092,268438473
-13652,-592,3884,-2557,15482,-2852,268438473
-13548,-380,4664,-1199,15081,-1704,268438473
-15236,264,4316,-1929,16085,-2296,268438473
-16660,-72,3004,-3123,13694,-1999,268438473
-15428,-404,2456,-3450,10645,-2048,268438473
-14460,-560,2184,-3123,11795,-2878,268438473
-14936,-1064,608,-3284,13638,-2790,268438473
-16872,-396,-284,-2846,12407,-1910,268438473
-17008,-824,-896,-3366,10861,-2709,268438473
-16456,-944,-1652,-3280,7856,-3028,268438473
-15864,-1948,-1944,-2942,6947,-2836,268438473
-15092,-2580,-3064,-2689,3192,-1612,268438473
-15244,-2356,-3692,-1505,879,-335,268438473
-15480,-1916,-3024,-1126,-994,-84,268438473
-17092,-2152,-2820,-514,-5043,1454,268438473
-17404,-1088,-660,-189,-9395,1917,268438473
-19736,-1120,-560,-2106,-18847,2254,268438473
-19072,-2168,-1736,-5000,-32768,3405,268438473
-16184,-2172,-664,-3589,-32768,3258,268438473
-15252,-2012,172,1501,-32768,2049,268438473
-16656,-1624,2252,6996,-32768,2851,268438473
-14840,440,4932,10324,-32768,2055,268438473
-10688,1948,6568,8690,-32768,2209,268438473
-5620,2408,9072,6877,-32768,6633,268438473
-1976,2424,10972,6096,-32768,5579,268438473
636,1880,12472,5053,-32768,3644,268438473
3156,1684,14316,4694,-32768,1076,268438473
4784,1860,14728,3539,-27190,-412,268438473
7176,1396,15636,2336,-20350,1523,268438473
5944,1456,16528,3320,-11947,3748,268438473
5468,2064,16172,3591,-10914,6506,268438473
6532,2740,17040,3025,-8462,6646,268438473
6664,2220,16688,1176,-1797,4115,268438473
4528,2840,15652,2331,3609,195,268438473