ax, ay, az, gx, gy, gz, temp
-108,488,16108,-72,-1840,333,268438473
32,420,16064,-65,-3155,985,268438473
-12,652,16072,257,-3474,1182,268438473
236,488,16268,388,-2807,741,268438473
264,448,16064,210,-2602,253,268438473
268,664,16136,-48,-2580,382,268438473
444,532,15656,-183,-3683,439,268438473
708,704,16276,-261,-5812,302,268438473
780,-12,15684,-475,-7031,211,268438473
1216,48,15636,166,-10159,446,268438473
1956,16,15484,813,-11713,134,268438473
3040,364,15544,1231,-11786,-409,268438473
3460,484,15564,1163,-11415,-1278,268438473
3528,452,15360,983,-13330,-1555,268438473
4016,444,15792,1513,-14679,-792,268438473
4960,900,15636,2073,-17325,-107,268438473
5708,1356,14840,1103,-17003,69,268438473
6556,1328,14456,-346,-17333,-726,268438473
7728,900,14492,-1160,-18378,-2083,268438473
8320,804,14428,-669,-19321,-1212,268438473
11068,528,13200,-433,-19221,-376,268438473
12716,576,12952,-751,-15297,-421,268438473
11788,840,11692,-1531,-16228,1022,268438473
12064,400,11216,-941,-22111,4329,268438473
14460,504,10192,349,-24527,7459,268438473
12500,580,9180,713,-18099,5745,268438473
11184,1028,9476,1042,-16325,1782,268438473
14280,1032,9308,-351,-18660,473,268438473
15356,380,7540,-1500,-17880,2156,268438473
14412,104,5792,-955,-16879,719,268438473
15236,664,5444,-1555,-19858,-2727,268438473
16008,-952,3264,-2840,-20683,-3341,268438473
15752,-1020,1780,-2417,-18335,-3029,268438473
16128,564,1464,-563,-19613,-3592,268438473
18208,452,880,729,-19834,-2233,268438473
17412,840,444,1033,-15119,-698,268438473
16256,724,-744,-1064,-12442,-2570,268438473
16388,476,-1268,-860,-12841,-2326,268438473
17216,560,-2636,1994,-16356,641,268438473
18712,1116,-4272,3412,-19375,3260,268438473
16728,488,-3988,1415,-14178,1963,268438473
15068,328,-4640,325,-14912,604,268438473
15784,572,-5628,2440,-19934,2452,268438473
17716,948,-7444,3272,-21919,5503,268438473
15800,884,-7100,76,-10834,1833,268438473
14936,-336,-7784,-2202,-3138,-1038,268438473
15744,-460,-9204,-1536,-594,-1733,268438473
16248,-528,-8852,1545,237,-64,268438473
15896,40,-8460,2601,2165,605,268438473
16388,-120,-7800,1459,5770,-544,268438473
15680,-348,-7128,667,10649,-1393,268438473
16768,-296,-6648,479,13032,-2027,268438473
17740,-100,-6180,1649,16548,-915,268438473
16876,-4,-4940,2239,21148,-751,268438473
16860,512,-3000,1810,20630,-1296,268438473
16900,756,-1820,533,20138,-1419,268438473
17220,576,-864,-178,22408,-1757,268438473
17292,80,228,-325,26127,-2308,268438473
17504,432,1140,541,28181,-1006,268438473
16480,460,2736,1922,27152,930,268438473
16792,1044,4448,2011,25413,1388,268438473
15860,752,5816,464,24624,512,268438473
13852,852,6836,-174,23351,-1045,268438473
13424,1088,8336,-765,20375,-2138,268438473
13520,692,8980,-1866,19258,-3903,268438473
13456,432,9512,-2336,20094,-4187,268438473
12876,284,9772,-1803,19928,-4498,268438473
12980,440,10516,-1084,18907,-4194,268438473
11828,936,10976,-330,18657,-3077,268438473
10352,1400,11740,282,17839,-2536,268438473
8808,824,12052,-86,15654,-2161,268438473
8964,908,12476,747,13653,-1374,268438473
9848,1452,13344,944,13969,-1566,268438473
8172,1468,14276,1682,15887,-1732,268438473
6156,1988,14612,1624,14152,-1152,268438473
6972,2504,15164,408,13136,-258,268438473
6492,1732,15716,-131,14498,-928,268438473
4324,1948,15448,366,15213,-457,268438473
2804,1936,16472,-133,13144,852,268438473
3332,1388,16840,-1657,12153,1163,268438473
3160,1996,16208,-2561,14289,735,268438473
2520,936,16244,-2190,15673,-484,268438473
964,1408,16580,-1297,15178,-1389,268438473
280,1160,16412,-1877,14955,-1002,268438473
132,1044,16136,-1998,14266,-1641,268438473
-916,836,16156,-1357,14903,-1107,268438473
-2396,688,15792,-904,16317,-875,268438473
-2752,1108,15728,-660,16477,-1847,268438473
-4272,956,15032,64,17639,-1799,268438473
-4256,312,15452,694,16996,-1950,268438473
-5664,792,14308,1456,18527,-2767,268438473
-7352,380,13760,1802,15956,-2768,268438473
-7648,368,14072,2098,14865,-3172,268438473
-7828,828,13436,779,13228,-4166,268438473
-8536,852,14056,207,9541,-2605,268438473
-8312,732,14808,-1201,11412,556,268438473
-10100,728,13324,-2619,13491,-8,268438473
-10704,-220,11636,-2709,13277,-1583,268438473
-9880,452,10712,-1579,13041,-2570,268438473
-9744,1052,11308,-1770,12555,-2005,268438473
-11048,616,10224,-3403,12117,-1877,268438473
-11248,-976,9320,-4179,11242,-971,268438473
-11596,-1036,8416,-3739,11799,-2219,268438473
-12348,-1216,7704,-2326,11857,-2906,268438473
-11360,-652,8800,-1341,11220,-2521,268438473
-12448,-132,8392,-2137,12755,-2127,268438473
-13416,-480,7200,-2962,12023,-2286,268438473
-13348,-1256,6396,-2469,12908,-2323,268438473
-15356,-1464,4388,-1387,13338,-2036,268438473
-16676,-2168,3568,108,9693,-1935,268438473
-15064,-1764,4288,1656,9267,-2765,268438473
-15180,-1716,4648,3042,10615,-2063,268438473
-14404,-500,4400,2810,10038,-1182,268438473
-15568,-236,3008,2541,11194,-1358,268438473
-14668,-1648,2128,1735,9309,-1208,268438473
-14620,-1940,1684,1713,8129,-1056,268438473
-14876,-2592,1824,2675,8457,-1458,268438473
-14992,508,32,2015,9585,-1179,268438473
-14956,-3148,24,1367,7219,234,268438473
-15540,-2112,508,2814,6802,706,268438473
-16828,-1368,640,2340,6090,846,268438473
-15848,-1476,1568,1933,5870,-523,268438473
-15780,-1784,1044,552,5685,-880,268438473
-15184,-2084,-356,-1017,4025,-832,268438473
-16064,-2548,-1820,-1140,2573,-116,268438473
-16772,-2748,-3288,-905,31,862,268438473
-15952,-2408,-2892,464,-2449,1748,268438473
-15156,-1188,-1576,450,-4370,2459,268438473
-16436,-1176,-1472,-344,-7210,2935,268438473
-16464,-1192,-1204,-1390,-12633,3368,268438473
-16840,-1008,-1240,-2074,-15924,4472,268438473
-16512,-416,220,-45,-14111,2862,268438473
-16508,-628,1308,1133,-13998,2411,268438473
-17056,-968,2156,942,-19005,2984,268438473
-16832,-292,1580,-545,-25329,1570,268438473
-13152,-744,5012,-1156,-21063,1203,268438473
-12892,-636,6180,208,-15536,2288,268438473
-15164,-640,6544,1088,-17098,3595,268438473
-14976,-172,7840,1093,-21316,2558,268438473
-12524,-136,9220,-434,-22544,994,268438473
-10516,-192,9828,-1089,-21528,849,268438473
-11260,-1104,10372,1133,-20198,2027,268438473
-10928,-496,12204,3232,-21636,2692,268438473
-9632,360,13004,2458,-22945,2130,268438473
-7036,836,12824,1410,-22457,289,268438473
-6296,-756,13460,2592,-19534,430,268438473
-5696,936,14344,3671,-16519,-85,268438473
-7104,1760,15732,3911,-17002,213,268438473
-6264,2112,17056,2821,-21055,434,268438473
-2140,2244,16484,400,-20064,-493,268438473
-484,1316,15284,-335,-15130,-48,268438473
-1132,1020,14840,458,-13003,827,268438473
-2720,1020,15088,510,-16785,2239,268438473
-908,1244,15384,406,-18119,1702,268438473
872,1380,15704,478,-16167,1142,268438473
1312,1436,15632,866,-14741,1240,268438473
516,1584,15496,1951,-15685,1194,268438473
2432,1576,16124,1674,-18383,1379,268438473
4900,1492,14644,401,-18324,1625,268438473
5220,1392,14164,1162,-13841,675,268438473
4832,2316,16140,2235,-12636,1435,268438473
5968,2128,15324,1298,-19165,4197,268438473
8224,1744,15224,1028,-18015,4290,268438473
7240,1740,13944,786,-17334,2690,268438473
7660,1528,13704,1425,-16932,395,268438473
9392,2204,14240,2596,-15885,23,268438473
9904,2724,13060,1352,-15786,2371,268438473
10172,1836,11500,8,-16153,2633,268438473
11376,1236,11204,1004,-18138,1228,268438473
13180,1956,10792,1886,-17874,352,268438473
13384,2108,10176,1447,-17916,370,268438473
12672,1660,9080,1706,-18451,171,268438473
11940,2020,8576,2141,-18677,-1541,268438473
14992,1728,7712,1534,-23212,-2589,268438473
17588,1968,5144,677,-18136,-2760,268438473
15640,2788,4916,183,-11089,-3618,268438473
15060,3112,5804,318,-12372,-4297,268438473
16052,3036,5076,1741,-14344,-2198,268438473
16456,3060,3828,2839,-13178,-16,268438473
15908,2676,2572,2372,-14060,172,268438473
16168,2644,1724,2196,-14240,604,268438473
16512,2904,1596,2987,-13888,892,268438473
15988,3104,1236,3680,-13729,1809,268438473
15740,2740,164,3638,-13161,1394,268438473
16340,2932,-1120,3308,-12283,633,268438473
17288,3364,-1580,1752,-8784,158,268438473
16296,2928,-1264,183,-8721,-106,268438473
16876,2824,-1892,1326,-10219,502,268438473
16976,3408,-1700,2204,-10901,1411,268438473
16872,2756,-2380,1972,-10408,2260,268438473
17036,2168,-3484,1802,-9250,1651,268438473
17196,1844,-4628,2111,-5517,1556,268438473
17572,1680,-5656,2248,-3456,1478,268438473
16928,1988,-5024,514,99,723,268438473
16812,1736,-4944,-619,2136,-88,268438473
17108,2324,-4216,-104,4637,-157,268438473
17060,2248,-3708,585,7512,385,268438473
17368,2148,-2928,247,10672,818,268438473
17048,2048,-2712,-291,13264,751,268438473
17332,1884,-1656,-1225,14570,797,268438473
15652,1744,-1848,-1745,16312,1623,268438473
17628,1908,-252,-2322,16394,1607,268438473
18428,2008,1772,-739,23732,2073,268438473
14592,2296,-20,-3334,21960,2205,268438473
16148,832,2744,-491,15775,-695,268438473
17668,296,3304,2027,18279,577,268438473
15740,1892,5980,1609,21315,2617,268438473
14096,1624,7404,-563,19574,2196,268438473
15408,1512,7976,-1740,20150,2079,268438473
14736,1096,8308,-1396,23473,1605,268438473
13148,1324,8476,-763,21998,1293,268438473
12244,528,10080,-792,19499,530,268438473
11712,304,10400,-68,19076,-385,268438473
10560,136,10600,422,23315,-1445,268438473
9556,1544,9464,-318,22019,-2623,268438473
9860,1776,12868,584,16574,-2756,268438473
9280,2224,9412,-14,18574,-1415,268438473
7516,1064,13524,801,16916,-2135,268438473
5796,788,14904,190,18269,-2263,268438473
5168,1056,17536,-1654,21947,-2939,268438473
5988,1624,15916,-1085,12694,-1059,268438473
5408,1324,16080,-2336,14580,-1159,268438473
3872,1792,16336,-3340,15878,-3145,268438473
3368,1056,16912,-3357,15672,-3553,268438473
2540,616,15540,-3820,16197,-4729,268438473
1148,612,15592,-2280,16468,-5324,268438473
704,1004,16860,-1445,14770,-4613,268438473
124,780,16132,-2713,13803,-3413,268438473
188,748,15640,-2497,15515,-3925,268438473
-1160,44,15552,-1193,15084,-3064,268438473
-1764,-236,15936,-2590,18048,-1711,268438473
-3036,-84,15448,-3942,20938,-2063,268438473
-4532,-72,14960,-4238,21942,-2325,268438473
-6064,-1520,14464,-1668,20167,-549,268438473
-7140,-808,13268,876,13979,549,268438473
-7984,-192,14116,1030,12441,-456,268438473
-8632,-160,14108,555,12946,211,268438473
-8104,-252,13552,131,12510,383,268438473
-9360,-704,13092,633,11151,383,268438473
-9976,-300,12160,323,12744,127,268438473
-10028,-216,11964,-755,13552,-515,268438473
-10372,-572,11192,-548,11300,-173,268438473
-11260,-200,11008,718,9743,-200,268438473
-11884,-52,11148,311,10324,-513,268438473
-11896,252,10920,-2227,12587,-1767,268438473
-12148,-556,9428,-3209,13610,-3026,268438473
-12056,-1440,8384,-1189,11816,-1950,268438473
-12848,-704,8152,-536,12012,-1025,268438473
-14060,-1220,7948,-700,10756,-2535,268438473
-13580,-1420,7932,-437,9273,-2612,268438473
-13600,-940,7224,-722,8234,-2696,268438473
-13988,-1132,6704,-837,8597,-3398,268438473
-14220,-1352,6136,-523,8800,-3863,268438473
-14580,-1764,5488,-459,8922,-4218,268438473
-14388,-2328,5160,-468,8288,-3020,268438473
-14416,-2580,4600,-438,8498,-1571,268438473
-14624,-2364,3864,-93,9108,-775,268438473
-15184,-2512,3672,421,10011,-719,268438473
-14760,-2200,3020,838,11524,-151,268438473
-15548,-2136,2524,745,12642,-81,268438473
-15300,-2292,1780,-69,12141,366,268438473
-15040,-3044,696,12,8368,1125,268438473
-15836,-2352,1128,126,3883,1474,268438473
-16084,-1892,936,-335,3136,1142,268438473
-16096,-1676,0,-284,2643,778,268438473
-15980,-1748,168,224,2519,-22,268438473
-15596,-2068,280,238,1910,-161,268438473
-15512,-2316,-28,-223,717,192,268438473
-15768,-2140,136,-572,-1332,756,268438473
-15668,-2316,-328,-508,-3128,882,268438473
-15824,-2020,-8,-525,-6320,1182,268438473
-15948,-2152,544,-1039,-10272,1554,268438473
-15892,-1860,588,-1773,-12180,1572,268438473
-15760,-1784,1472,-2163,-10640,1671,268438473
-15628,-1512,3048,-2175,-11389,2083,268438473
-15944,-1744,3488,-784,-16626,1880,268438473
-14592,-1392,3916,-634,-18653,2859,268438473
-14908,-1668,5344,-1040,-20049,2952,268438473
-14664,-1316,6920,-1291,-22777,2460,268438473
-13324,-924,7628,-851,-21289,2391,268438473
-12884,-364,7928,-24,-20780,1872,268438473
-13328,-920,9080,1224,-22386,2189,268438473
-10964,-1732,10184,3217,-28503,2958,268438473
-9188,-432,11240,3473,-25536,2436,268438473
-8900,-44,11976,884,-18646,1262,268438473
-9592,-8,13728,-433,-16574,1802,268438473
-7676,-644,13724,707,-20008,4998,268438473
-5952,-396,12744,2373,-18716,5715,268438473
-6100,692,13616,2287,-16829,4241,268438473
-4672,508,15100,-1268,-16620,3896,268438473
-3436,-60,14976,-2578,-14830,1312,268438473
-3824,584,14576,-1874,-11224,172,268438473
-4576,540,15484,-1722,-13279,-141,268438473
-3136,608,17528,-968,-19120,-199,268438473
-1580,312,16120,400,-15753,-869,268438473
-776,-120,15348,1507,-17045,-1861,268438473
96,476,16776,1776,-16078,-2077,268438473
1344,-284,17292,-1492,-23643,917,268438473
2920,0,15388,-3661,-25780,2545,268438473
4564,-184,15144,-1879,-22363,1660,268438473
4768,796,16960,28,-16443,516,268438473
5688,-28,16428,-787,-13885,851,268438473
6340,-432,14376,-1099,-13274,1856,268438473
7068,-264,13952,-30,-15204,811,268438473
8028,-556,15156,569,-14198,-271,268438473
8724,-144,14680,822,-14647,881,268438473
9112,-156,13840,962,-11908,578,268438473
8852,-80,12972,-44,-12820,143,268438473
9632,-248,12952,-255,-13581,-121,268438473
11192,-212,12684,217,-13201,202,268438473
11180,-88,12512,1159,-11188,136,268438473
11128,132,12324,183,-10278,-869,268438473
11628,-464,11796,-38,-11444,-1346,268438473
12104,-712,11148,1482,-14602,-993,268438473
12096,276,10604,1814,-17974,-1302,268438473
12988,348,9856,2043,-21851,-1270,268438473
14496,628,8416,1612,-20435,-1688,268438473
15260,568,7372,1562,-16321,-709,268438473
15288,780,6296,1908,-15502,558,268438473
15424,564,5908,2016,-15437,1147,268438473
15792,416,5168,2058,-14234,686,268438473
15896,688,4248,2248,-14362,419,268438473
16168,800,3960,2285,-15628,535,268438473
16672,568,3052,2174,-17684,887,268438473
15992,756,2000,2183,-18854,1266,268438473
16584,444,1192,1997,-17085,1418,268438473
16900,468,0,1522,-15849,768,268438473
17052,260,-884,1697,-15100,768,268438473
16968,208,-1432,1465,-12825,960,268438473
16956,104,-1824,894,-11088,1369,268438473
17104,380,-2264,270,-10689,1059,268438473
17892,232,-2880,-198,-8436,532,268438473
17752,-84,-3376,-301,-4198,231,268438473
17300,-184,-3604,67,-116,-191,268438473
17200,-56,-3068,-240,4727,-185,268438473
17052,-128,-2820,-94,9776,-558,268438473
17108,-320,-1688,-177,15583,-1531,268438473
17332,-220,-536,-1093,21642,-2439,268438473
17748,448,572,-2237,24705,-3039,268438473
16272,1084,1368,-3443,25980,-2186,268438473
15612,864,1368,-3278,23291,-1124,268438473
15664,164,3028,-2011,26515,-1411,268438473
15768,852,5044,-1325,26049,-1527,268438473
15516,924,6380,-614,24545,-313,268438473
14692,780,7476,-306,25219,82,268438473
13756,292,8760,53,24552,-534,268438473
12728,516,9548,856,23981,-1126,268438473
12388,736,11184,1143,25136,-1558,268438473
11284,1504,12816,-112,25356,-1436,268438473
9536,856,13716,-1516,25452,-1639,268438473
9184,772,13672,-572,22814,-1666,268438473
8292,1028,13716,-241,17345,-1092,268438473
7292,1344,15156,71,15680,-890,268438473
6592,1676,15988,-449,16103,-1069,268438473
5308,844,15192,-1641,16155,-920,268438473
5012,540,15324,-851,16496,-1266,268438473
4184,1088,16004,-312,16620,-703,268438473
2568,1144,16396,-1055,16519,-626,268438473
1556,644,15512,-1280,16330,-615,268438473
1284,460,16128,-683,16431,-1585,268438473
256,700,16868,-384,18668,-2744,268438473
-688,308,16288,-846,16837,-2334,268438473
-1252,544,15580,-1136,12557,-1159,268438473
-2628,1092,16304,-1763,13718,-1460,268438473
-3224,500,15488,-1860,11933,-1489,268438473
-2692,520,15132,-629,10149,-886,268438473
-3312,488,14868,-124,9624,-744,268438473
-4196,424,15128,834,10383,-90,268438473
-5140,504,15056,655,10993,78,268438473
-5292,712,15216,-81,14078,-648,268438473
-6004,112,14644,-50,15521,-804,268438473
-7288,-28,13864,593,12319,583,268438473
-7340,464,14112,402,12025,326,268438473
-8316,692,14388,-387,15730,-838,268438473
-9500,328,12252,-285,15943,-1288,268438473
-9952,108,12160,284,13314,-524,268438473
-9136,452,12792,-376,14771,-1662,268438473
-10816,180,11640,-804,16671,-1413,268438473
-11308,-292,9876,19,14510,-476,268438473
-11852,148,9900,409,14788,-556,268438473
-12628,616,10576,-850,16927,-2391,268438473
-12432,-156,9080,-1794,16856,-2127,268438473
-13332,-748,7272,-926,13951,-81,268438473
-13628,-412,7296,-192,12066,59,268438473
-14632,272,6932,-1344,14066,-1610,268438473
-14428,-412,6152,-1719,14407,-2620,268438473
-13284,-348,5248,-647,15508,-1696,268438473
-14400,-620,4352,-1140,17188,-577,268438473
-15284,-680,3508,-1355,16284,-1411,268438473
-16300,-592,2116,-1736,15094,-1904,268438473
-15072,-704,1508,-1006,14011,-1737,268438473
-15188,-668,1332,-1266,13972,-1868,268438473
-15656,-980,124,-1741,13639,-1694,268438473
-16064,-1416,-1200,-1144,12423,-1843,268438473
-16424,-1420,-1536,20,10356,-1806,268438473
-15460,-1032,-1568,-149,10420,-2039,268438473
-15444,-1508,-2516,-214,10455,-2187,268438473
-15052,-1748,-3248,-153,9177,-1577,268438473
-15776,-1608,-4000,-127,6642,-901,268438473
-15868,-1932,-4200,-47,3042,-441,268438473
-16212,-1820,-4404,-197,-214,281,268438473
-15816,-1768,-4484,-275,-3408,394,268438473
-16184,-1732,-4476,3,-6439,919,268438473
-15624,-1592,-3820,72,-9442,1320,268438473
-15972,-1696,-3012,322,-13295,2044,268438473
-16256,-1796,-1948,763,-18803,2045,268438473
-15732,-1688,-488,1254,-23090,1532,268438473
-15792,-1348,656,1417,-26461,1348,268438473
-15316,-1120,2252,1572,-28758,1301,268438473
-15404,-1256,4928,911,-30310,799,268438473
-14008,-1004,5996,-127,-30468,391,268438473
-13876,-644,6184,-476,-31549,249,268438473
-13456,-672,8368,-105,-30131,308,268438473
-11840,-460,9140,-96,-27096,411,268438473
-10068,-1048,9632,404,-27290,927,268438473
-9536,-732,12220,1946,-27247,1394,268438473
-8860,-684,13660,1295,-23293,1026,268438473
-8116,-692,12312,476,-20665,1320,268438473
-6392,-992,12512,2097,-21589,1450,268438473
-5452,-552,14732,2862,-19101,1970,268438473
-5416,-236,16072,2864,-19490,2017,268438473
-4520,76,15236,2063,-18303,1321,268438473
-3076,280,15264,1475,-15331,410,268438473
-2324,-252,15844,2379,-14049,775,268438473
-1852,96,15752,3878,-16047,1728,268438473
-696,504,15820,4340,-16755,2061,268438473
388,1004,16516,3174,-14716,1267,268438473
464,1280,16608,2139,-13668,835,268438473
1220,900,16128,2359,-15434,1443,268438473
2556,1096,15740,3191,-16647,1592,268438473
3268,1480,16040,3133,-16417,1607,268438473
3944,1752,16296,2096,-16626,1156,268438473
4888,1656,15640,1751,-16710,1360,268438473
5584,1692,15384,1782,-17108,1611,268438473
6536,1696,14680,1692,-19063,1917,268438473
7596,1884,14404,1827,-19158,1493,268438473
8184,1832,14092,1486,-17832,1542,268438473
8956,1880,13712,1527,-18350,1836,268438473
10108,1720,12652,1783,-18769,1559,268438473
10732,1712,12204,2278,-17940,994,268438473
11436,2372,11776,2168,-18836,902,268438473
12512,2248,10868,1216,-19844,1214,268438473
13088,1876,9788,1401,-19094,1247,268438473
13996,2212,9368,1139,-19918,1742,268438473
14084,2128,8728,438,-19767,1927,268438473
14656,1424,7408,234,-17887,1712,268438473
15116,1364,6564,347,-16034,1600,268438473
15488,1712,5776,250,-13849,1764,268438473
16012,1624,5148,-146,-12860,1493,268438473
15948,1196,4228,219,-12836,1451,268438473
15996,1456,4040,319,-13215,1149,268438473
16392,1468,3316,308,-13215,1232,268438473
16392,1544,2600,553,-12673,1293,268438473
16380,1540,2040,408,-13538,1325,268438473
16480,1164,1156,315,-14876,1161,268438473
16700,924,148,1013,-13988,930,268438473
17040,1120,-428,571,-11399,700,268438473
17036,1232,-1268,181,-8797,883,268438473
17240,872,-1524,-411,-5350,1212,268438473
17164,856,-1524,-762,-1873,683,268438473
17320,716,-1660,-625,1378,-406,268438473
17524,768,-1124,-161,5177,-746,268438473
17500,916,-692,-286,10405,-589,268438473
17068,1016,-480,-253,14498,-630,268438473
17260,1196,548,-216,17918,-1360,268438473
16788,1248,1816,16,19791,-1110,268438473
16668,1452,2780,-328,22760,-1113,268438473
16624,1244,4172,-346,24820,-1129,268438473
16108,1556,5464,-602,25285,-851,268438473
14844,1532,6884,-1054,25182,91,268438473
14076,1252,7704,-1552,24389,-109,268438473
13840,1328,8216,-304,23062,-667,268438473
13144,1560,10060,551,24931,-1320,268438473
12012,1636,10948,148,26540,-1464,268438473
11112,1928,12008,-1099,28609,-2003,268438473
9764,1352,12664,-159,27486,-1639,268438473
8128,1152,12844,2065,26005,-1187,268438473
6720,1460,14344,1727,27881,-2098,268438473
5720,1888,15384,972,28776,-3024,268438473
4648,2188,15060,1843,27334,-1999,268438473
2792,1868,15544,2116,24978,-1504,268438473
1644,1968,16020,628,21875,-1719,268438473
756,1864,16124,428,19455,-2344,268438473
-472,2228,15720,1294,13791,-1699,268438473
-1592,2100,15324,1658,12372,-1388,268438473
-2360,2388,15628,799,13541,-2120,268438473
-2632,2680,16552,-146,14322,-2955,268438473
-3020,2464,16328,-755,15824,-3035,268438473
-4060,2096,14904,59,15537,-1624,268438473
-5032,2348,14612,1086,13491,-459,268438473
-6044,2404,15104,597,14453,-1097,268438473
-6628,2452,14972,-507,17977,-2925,268438473
-7264,2136,14124,-1027,18168,-3426,268438473
-7344,1692,13068,-317,15256,-2119,268438473
-8908,1692,12892,-69,12397,-1149,268438473
-9808,2056,13120,-569,13056,-2574,268438473
-9192,1788,12220,-523,15037,-2853,268438473
-10056,1432,11076,104,12170,-1156,268438473
-11056,1400,11136,1036,9479,-982,268438473
-11604,1848,11536,135,10997,-2077,268438473
-11548,1748,10440,-789,13604,-3253,268438473
-12252,1164,9452,-213,13655,-3308,268438473
-12628,1076,8836,293,13821,-3313,268438473
-13000,1484,8972,435,14338,-3404,268438473
-13184,956,8344,-468,16235,-3320,268438473
-13580,628,6604,-323,15868,-2522,268438473
-14656,960,6140,-19,15433,-2191,268438473
-15176,924,5980,-799,18117,-4209,268438473
-14740,660,4788,-1540,20592,-6106,268438473
-14688,-76,3196,-1837,21609,-6190,268438473
-15192,-1112,1704,-1241,19307,-4950,268438473
-15904,-1200,748,-709,17415,-3930,268438473
-15756,-844,-368,-1001,16948,-3084,268438473
-14932,-1432,-1212,-882,15217,-2254,268438473
-15360,-1464,-1704,-394,11963,-977,268438473
-15360,-1316,-2284,-796,10723,-897,268438473
-15720,-1184,-3428,-492,9737,-748,268438473
-16104,-1240,-3780,-17,7884,-902,268438473
-15564,-1292,-3864,-43,6804,-1011,268438473
-15840,-1384,-4704,-199,5694,-985,268438473
-15152,-1388,-4896,-150,3211,-439,268438473
-15628,-1464,-5004,-219,195,109,268438473
-15180,-1272,-5108,-358,-2999,-99,268438473
-14948,-1404,-5172,-14,-4842,420,268438473
-15380,-1488,-4388,253,-6283,783,268438473
-15700,-1516,-4020,287,-9493,911,268438473
-15708,-1516,-3776,459,-12955,1168,268438473
-16172,-1256,-2896,798,-15631,1864,268438473
-16016,-1292,-1632,486,-18287,1476,268438473
-15604,-1400,-544,501,-21398,1247,268438473
-16216,-1172,552,977,-23953,1372,268438473
-15696,-920,2020,253,-25856,906,268438473
-14588,-1112,3072,290,-27126,1044,268438473
-14924,-584,4736,1187,-29538,1950,268438473
-14576,-520,7048,1283,-30175,1959,268438473
-12776,-812,7900,139,-30503,2519,268438473
-11692,-468,8688,1488,-31451,3028,268438473
-11220,756,11540,2011,-26841,2091,268438473
-10564,-212,12396,-31,-24475,1207,268438473
-9000,-352,11948,-96,-24737,670,268438473
-7524,-384,13168,463,-23015,734,268438473
-6812,224,13700,743,-19695,1391,268438473
-6580,104,14228,1417,-16094,1629,268438473
-5860,256,14896,1059,-16117,919,268438473
-4592,480,15332,-482,-13115,386,268438473
-3700,68,14704,-1725,-10892,396,268438473
-2944,-68,14184,-153,-12657,976,268438473
-3092,56,15680,1394,-14123,1470,268438473
-2648,536,16140,2400,-15340,1255,268438473
-1364,640,16060,2500,-16208,830,268438473
-548,796,16208,2554,-16910,610,268438473
244,752,16304,3175,-18886,541,268438473
1644,1288,16228,2864,-19224,782,268438473
2028,1168,16300,2442,-18629,778,268438473
3056,1124,16512,2939,-19133,841,268438473
4432,1528,15868,3181,-17826,724,268438473
5300,1540,15492,2519,-15263,442,268438473
5980,1856,15492,1547,-13796,432,268438473
6660,1796,15412,624,-15371,1060,268438473
7296,1896,14716,-227,-16161,866,268438473
8064,1600,14536,-608,-16053,969,268438473
8560,1520,14056,-671,-14606,491,268438473
9028,1524,12808,-14,-17021,876,268438473
11256,1204,13684,1774,-13835,-172,268438473
10700,1872,12832,1938,-7533,854,268438473
10916,1608,11924,1039,-10715,2320,268438473
10796,1436,10900,1944,-12691,1931,268438473
12024,1436,11588,2714,-10477,511,268438473
12192,2056,11048,1753,-9913,-285,268438473
12188,2064,10728,765,-12729,-421,268438473
12968,2096,9608,743,-14176,-633,268438473
14076,1996,9320,1398,-13869,-800,268438473
13936,2108,8344,1286,-15531,148,268438473
14392,2000,7592,1229,-18537,161,268438473
15768,2112,7004,1234,-18604,-571,268438473
15624,2080,6896,418,-13876,-896,268438473
14404,2284,4772,309,-17934,161,268438473
15572,1596,3820,602,-17986,222,268438473
16064,1640,2868,1724,-13280,716,268438473
16556,2420,2428,1896,-12536,1347,268438473
16196,1560,2056,1624,-11074,2308,268438473
16664,2012,1900,1732,-9251,1537,268438473
17160,1740,1668,1755,-7354,1692,268438473
17136,1612,1028,1563,-6281,1890,268438473
16956,1764,428,1414,-5699,1660,268438473
16732,1632,200,1371,-6350,2146,268438473
16964,1460,72,1239,-6833,1904,268438473
16732,1564,224,477,-6686,1460,268438473
17080,1356,168,-323,-4819,1241,268438473
17372,1176,232,-1145,-536,994,268438473
17180,1176,0,-2287,4700,608,268438473
16868,1112,-172,-2860,8915,2,268438473
16944,852,512,-2774,14574,-700,268438473
16668,1028,544,-1919,16800,-2372,268438473
16196,432,2136,-1991,23202,-2554,268438473
16172,1244,3992,-1798,27933,-1452,268438473
16000,1436,5976,-2672,31232,661,268438473
15584,1440,7448,-4317,32767,794,268438473
14936,1964,8896,-5151,32767,2487,268438473
13104,1160,9632,-5000,32767,2413,268438473
12420,648,10568,-2934,31924,924,268438473
11148,872,12324,-2157,32767,-122,268438473
8892,680,14440,-2413,32767,-304,268438473
7304,308,14360,-1494,32767,-1604,268438473
5900,312,14648,-117,32767,-3233,268438473
4084,1032,15404,610,32767,-2791,268438473
1608,912,16784,-26,32767,-2757,268438473
408,916,17280,-1043,30563,-3627,268438473
-1204,552,15960,-2046,30161,-4204,268438473
-3356,-104,14788,-776,26464,-3703,268438473
-4408,-204,14696,1101,21765,-2821,268438473
-5524,-4,14664,718,17640,-2840,268438473
-6036,140,14728,-102,15321,-2894,268438473
-6836,-8,14000,-259,13899,-1917,268438473
-7596,-80,13868,-1,11274,-1370,268438473
-8012,200,13860,60,11216,-1406,268438473
-8312,88,13308,-359,12101,-1354,268438473
-8932,-72,12828,94,13309,-1302,268438473
-9336,260,12412,-130,13040,-1106,268438473
-10560,76,12416,-946,13688,-1263,268438473
-10764,-372,11476,-1331,14559,-1129,268438473
-10568,-764,10132,-734,14118,343,268438473
-12264,-656,9924,80,11745,1445,268438473
-12636,-76,10028,-584,10848,544,268438473
-12932,172,9504,-1276,13019,-382,268438473
-13048,-284,8608,-1302,14533,-599,268438473
-12988,-672,7724,-712,15369,-78,268438473
-13708,-220,7076,-504,16007,-160,268438473
-14888,-448,6720,-618,16566,-795,268438473
-14896,-464,5864,-1043,14754,-1110,268438473
-14740,-632,4760,-886,11875,-130,268438473
-15480,-592,4020,-500,10264,209,268438473
-15336,-392,4008,-673,10220,-670,268438473
-15124,-552,2980,-879,12495,-1592,268438473
-15136,-572,2752,-786,13509,-1722,268438473
-14836,-688,2000,-919,14366,-1424,268438473
-15752,-1180,1032,-162,12354,-1364,268438473
-15972,-1132,300,29,8775,-1192,268438473
-15844,-880,-64,189,8713,-2042,268438473
-15220,-972,-460,112,9410,-2481,268438473
-16012,-1472,-1140,-175,8129,-2173,268438473
-15324,-1452,-1512,-667,7433,-1782,268438473
-15240,-1676,-2372,-1018,8616,-1587,268438473
-14752,-1780,-2848,-1023,9539,-1073,268438473
-15576,-1996,-3748,-1152,9971,-659,268438473
-15504,-2052,-3952,-827,9060,-872,268438473
-15884,-2232,-4804,-823,6152,-545,268438473
-15424,-2096,-4900,-700,2066,-288,268438473
-15044,-1568,-4876,-546,-523,219,268438473
-15052,-1408,-5184,-150,-2080,347,268438473
-15428,-1004,-4592,186,-3364,642,268438473
-15588,-1180,-4448,401,-4809,766,268438473
-15616,-1196,-4080,422,-5775,1095,268438473
-16168,-1360,-3484,308,-6802,1220,268438473
-16204,-1684,-3024,-194,-9145,982,268438473
-15636,-2132,-2688,-122,-12716,1670,268438473
-16300,-2020,-2268,151,-17087,2169,268438473
-16660,-1296,-1004,123,-19734,1716,268438473
-15784,-1276,744,69,-23316,779,268438473
-15040,-1168,1492,-144,-26057,880,268438473
-15412,-1180,2920,193,-27423,1593,268438473
-15312,-796,4684,439,-26392,1859,268438473
-13004,-1188,4872,-198,-27700,1727,268438473
-13416,-736,7028,1515,-27613,2145,268438473
-12724,-120,9660,1177,-23107,1488,268438473
-11536,-464,9524,-1062,-18253,1309,268438473
-11052,-1032,8852,-99,-19958,1454,268438473
-10676,-512,10828,1896,-19621,2112,268438473
-10408,0,12496,1457,-17034,1903,268438473
-9076,-300,12460,976,-18556,1669,268438473
-8024,96,13028,1526,-22472,1582,268438473
-7824,408,14388,1768,-23380,1111,268438473
-6784,264,14560,1752,-23477,1271,268438473
-5292,340,14640,3044,-22729,1084,268438473
-3760,704,15124,4046,-22061,473,268438473
-3048,752,16048,3080,-21186,426,268438473
-2116,932,16016,2421,-21652,622,268438473
-944,908,15820,2812,-21093,611,268438473
148,1152,15784,3270,-21931,928,268438473
1200,1300,16124,3551,-19945,1140,268438473
2520,1516,16240,2927,-18247,721,268438473
3568,2288,16140,2075,-16458,307,268438473
4120,1960,15636,1402,-16628,123,268438473
5300,2164,15624,1664,-16742,79,268438473
5952,2200,15388,1362,-17934,91,268438473
6840,2036,14636,1445,-19159,-5,268438473
7476,2084,14256,1639,-19933,-9,268438473
8224,1960,13800,2072,-19480,203,268438473
9420,2440,13272,2238,-18680,-235,268438473
10008,2368,12616,2049,-18831,-586,268438473
10880,2604,12548,1352,-18967,-343,268438473
12048,2644,11340,1611,-18316,-189,268438473
12156,2788,10896,1408,-18011,-717,268438473
13380,2768,10516,860,-17869,-734,268438473
14332,2620,9912,1128,-13858,-805,268438473
13456,2668,8480,1317,-13288,248,268438473
13828,2368,7240,1463,-14509,863,268438473
14432,2792,7044,2362,-15116,337,268438473
14716,3032,6300,2957,-15405,-162,268438473
15148,2680,6056,2783,-14941,-390,268438473
15864,2952,5696,1552,-12501,-444,268438473
16008,3104,4400,621,-9819,-204,268438473
15888,2728,3760,392,-8779,295,268438473
15940,2972,2748,1342,-7385,311,268438473
16240,3132,3380,603,-6665,227,268438473
16308,3148,2932,571,-5946,317,268438473
16256,3188,2620,998,-6037,603,268438473
16040,3192,1884,841,-7453,936,268438473
16328,2724,1860,570,-5863,664,268438473
16256,2804,1496,1111,-5392,805,268438473
16756,3104,1604,1221,-4671,773,268438473
17016,3332,1456,499,-2978,346,268438473
16452,2608,1048,-158,-1407,640,268438473
16704,2944,884,-109,-40,313,268438473
17088,2820,1112,-229,1527,321,268438473
16816,2980,1168,-379,2198,351,268438473
16456,2696,1112,-484,3628,180,268438473
16544,2536,1732,-907,6541,4,268438473
16464,2576,2284,-1747,9894,-83,268438473
16260,2832,2660,-2257,13182,-153,268438473
16244,2560,3272,-2250,15499,-83,268438473
16044,2576,4024,-2201,17276,-154,268438473
15988,2216,4936,-2222,20205,-18,268438473
15340,2712,6400,-2003,23223,97,268438473
15096,2752,7756,-2350,26943,228,268438473
13832,2888,9168,-2791,30317,623,268438473
12356,2332,9880,-3298,30547,1574,268438473
11608,2236,10912,-3162,30776,1410,268438473
10396,2056,12328,-1870,32366,392,268438473
8784,2068,13532,-878,32162,-525,268438473
7460,2000,14564,-826,30725,-722,268438473
5948,1912,14972,-575,28505,-487,268438473
4752,1992,15676,22,26568,-488,268438473
3248,2032,16092,246,27305,-1500,268438473
1808,2228,16396,-318,26781,-2085,268438473
336,1964,16504,-612,24882,-2368,268438473
-624,1780,15916,-150,21975,-2080,268438473
-2080,2032,16292,122,21274,-1837,268438473
-3292,2024,15980,-442,19555,-1425,268438473
-4488,2244,15924,-1674,18721,-2136,268438473
-5056,1760,14808,-2609,20169,-2700,268438473
-6008,1236,14236,-2126,18407,-2746,268438473
-6516,1096,13428,-1324,17999,-2091,268438473
-7612,956,13116,-673,16723,-1196,268438473
-8664,1384,13036,-164,14940,-1028,268438473
-9232,1476,12972,-718,15161,-1340,268438473
-10008,1436,12392,-1355,16269,-1807,268438473
-10860,636,11316,-1143,14925,-1908,268438473
-10964,756,10792,-331,14744,-1592,268438473
-11560,740,10548,-584,14647,-1404,268438473
-12360,568,10168,-696,15011,-1464,268438473
-12432,532,8824,-731,15996,-1767,268438473
-13008,280,8288,-839,17168,-1385,268438473
-13488,500,7468,-1165,17345,-1492,268438473
-14032,548,6836,-1929,20096,-1498,268438473
-13972,120,5576,-2515,21134,-1079,268438473
-14572,-324,4364,-2233,20071,-588,268438473
-15700,-164,3384,-2026,16945,-749,268438473
-15716,-116,2360,-1907,15345,-1678,268438473
-15416,-420,1452,-1546,14000,-1881,268438473
-15936,-752,796,-534,10955,-1469,268438473
-15784,-552,220,79,7240,-1129,268438473
-15824,-384,-280,422,5694,-871,268438473
-15988,-356,-396,462,5330,-1013,268438473
-15580,-388,-640,376,6068,-1507,268438473
-15508,-480,-848,470,6938,-1521,268438473
-15872,-760,-1324,409,7057,-1136,268438473
-15576,-632,-1632,603,7371,-826,268438473
-15352,-888,-2264,102,6528,-659,268438473
-16032,-916,-3136,29,5240,-495,268438473
-16016,-928,-3120,272,3061,-527,268438473
-16172,-948,-2768,42,1670,-400,268438473
-15776,-844,-3188,-250,557,-533,268438473
-15384,-868,-3500,-76,-516,-203,268438473
-15584,-1072,-3128,22,-1462,247,268438473
-15484,-776,-2676,1,-1977,335,268438473
-15804,-716,-2752,-349,-1843,154,268438473
-16016,-904,-3304,-305,-3328,419,268438473
-15968,-1132,-2616,-106,-5464,1076,268438473
-16340,-1112,-2216,72,-8936,1687,268438473
-16160,-992,-1700,500,-13295,1570,268438473
-15776,-932,-980,757,-17213,1975,268438473
-15612,-624,-12,1165,-19432,2513,268438473
-15332,-276,1620,847,-20005,2353,268438473
-15068,-240,2164,478,-20548,2086,268438473
-14812,-212,3560,525,-21857,2052,268438473
-14976,60,5080,675,-21630,1404,268438473
-14420,4,5824,213,-21653,1185,268438473
-13736,16,6284,806,-22437,1464,268438473
-13524,332,8052,1406,-22779,1650,268438473
-12620,532,9528,1074,-22497,1498,268438473
-11816,432,10116,881,-23124,1536,268438473
-10728,676,10776,1099,-23542,1327,268438473
-10088,720,12008,966,-23399,1398,268438473
-9356,968,13004,544,-23338,1331,268438473
-8612,832,13336,708,-23501,1585,268438473
-6580,1216,13996,1295,-21663,1328,268438473
-6036,928,14856,1393,-19379,890,268438473
-5384,948,15224,1077,-19398,1101,268438473
-4224,1160,15260,1123,-18169,937,268438473
-3396,1180,15376,1507,-16573,719,268438473
-2636,1276,15576,1931,-16024,631,268438473
-1632,1584,15740,2019,-15549,772,268438473
-780,1860,16116,1584,-15870,597,268438473
176,1564,15944,1301,-17119,681,268438473
1008,1672,15740,1448,-18499,1183,268438473
1912,1972,15856,1622,-17884,1102,268438473
2696,2076,15876,1837,-17329,827,268438473
3824,2092,15744,1736,-17249,321,268438473
4808,2108,15500,1324,-18454,67,268438473
5520,2156,15148,1415,-19535,177,268438473
6592,2384,14828,1793,-19841,-253,268438473
7356,2708,14324,1863,-20059,-383,268438473
8564,2644,14132,775,-21091,-421,268438473
9468,2592,13172,1319,-21168,425,268438473
10492,2976,12616,1642,-21057,321,268438473
11164,2484,11816,1651,-21068,400,268438473
14124,2196,13188,1754,-14671,-689,268438473
11440,2576,10448,601,-11380,915,268438473
12248,2428,9188,713,-16474,928,268438473
13640,2248,9392,1193,-16073,-71,268438473
14208,3188,8972,1715,-15902,22,268438473
13952,3184,7672,1996,-18523,-17,268438473
14496,2824,6928,1519,-19317,-313,268438473
15260,2556,5736,1402,-18839,196,268438473
15244,2676,4760,1154,-18379,552,268438473
15180,2520,4164,1164,-19155,907,268438473
16440,2120,3564,1041,-16191,1686,268438473
16488,3192,2220,933,-13836,1859,268438473
16260,2912,1156,357,-14554,1671,268438473
16656,2660,948,80,-14447,1336,268438473
16804,2296,-44,298,-13737,1412,268438473
16608,2428,-560,109,-12539,1585,268438473
16532,2328,-1120,-533,-12292,1199,268438473
16888,2168,-1576,-1014,-9893,1357,268438473
16656,2056,-2612,-101,-6220,2400,268438473
17732,1844,-2728,102,-1768,1487,268438473
17000,1952,-2512,123,2151,626,268438473
16804,1980,-2428,118,3858,252,268438473
16688,1872,-1844,81,4809,-92,268438473
16808,2032,-1432,64,5498,-134,268438473
16732,1932,-1476,-149,7508,-424,268438473
17064,1876,-1236,-718,10899,-854,268438473
17136,1924,-896,-1247,15623,-1665,268438473
17276,1904,332,-962,20827,-2025,268438473
16444,2000,2100,-978,24594,-1313,268438473
16168,2356,3576,-1438,25123,-1150,268438473
16604,2000,4592,-2054,27456,-1454,268438473
16016,2532,5780,-2467,28546,-1134,268438473
14156,2616,7396,-2834,26422,-773,268438473
13528,2304,8420,-2728,22787,-620,268438473
12396,2196,8892,-1599,19402,-125,268438473
12544,2164,10632,-1367,18640,57,268438473
11908,2356,11652,-2293,19924,72,268438473
10840,2284,12484,-2421,19359,-459,268438473
10256,2088,13324,-2096,20418,-596,268438473
9244,2020,14272,-2377,21401,-286,268438473
8116,2092,14444,-3365,22178,-570,268438473
6764,1768,15148,-3919,22684,-656,268438473
5636,1600,15192,-3805,22810,-494,268438473
4836,1176,15376,-3463,24271,-573,268438473
2440,1084,15896,-4255,26941,2119,268438473
2660,1192,15920,-4819,28567,3513,268438473
1084,512,15800,-2739,28080,419,268438473
-624,752,15992,-2475,29271,1730,268438473
-2396,92,15504,-1332,28300,1412,268438473
-4040,360,15560,-464,27317,1569,268438473
-5264,564,15472,-1691,26857,1254,268438473
-6816,532,15136,-3356,25808,-452,268438473
-7768,44,13780,-4207,23577,-1632,268438473
-8492,-548,12636,-3207,19641,-1503,268438473
-9920,-636,12048,-1750,14706,-1064,268438473
-10472,-664,11704,-1064,11382,-1579,268438473
-10152,-736,11720,-923,11424,-1889,268438473
-10280,-884,10784,-800,11826,-956,268438473
-11324,-948,10200,54,13340,50,268438473
-11916,-280,9756,218,15612,486,268438473
-12996,-640,9952,-326,17195,668,268438473
-13252,-740,8844,-271,17271,674,268438473
-13672,-452,7704,-162,18789,238,268438473
-14648,-696,6760,130,19633,-391,268438473
-14324,-732,5672,621,20503,-860,268438473
-14120,-828,4572,808,19597,-602,268438473
-14688,-924,3588,1230,17513,-467,268438473
-15016,-760,2704,1276,13783,-611,268438473
-15948,-1092,2220,1602,9961,-1159,268438473
-15380,-716,1988,1074,8342,-1524,268438473
-14928,-960,1412,593,7914,-907,268438473
-15248,-972,500,211,8951,-801,268438473
-15628,-592,-292,-45,9262,-687,268438473
-16200,-736,-376,226,8515,-869,268438473
-15968,-784,-416,299,8226,-1457,268438473
-15960,-1100,-1036,303,7482,-1118,268438473
-15852,-1340,-1912,194,4006,-776,268438473
-15676,-1340,-2328,235,1858,-1012,268438473
-15528,-1300,-2312,390,1272,-717,268438473
-15828,-1308,-2140,190,922,-464,268438473
-16092,-1440,-2508,-82,-990,151,268438473
-16408,-1360,-2200,-292,-3323,338,268438473
-16188,-1368,-1988,-715,-5670,476,268438473
-16180,-1512,-1892,-674,-8584,1114,268438473
-16096,-1580,-1272,-86,-13516,1964,268438473
-15988,-1272,-388,445,-20482,2619,268438473
-15624,-1452,1436,661,-27361,3492,268438473
-15024,-632,2976,842,-30834,4393,268438473
-14964,92,4752,1287,-30616,4263,268438473
-14284,48,6076,964,-30804,3199,268438473
-13372,-40,7440,904,-31189,1649,268438473
-12684,-128,9408,730,-31399,1420,268438473
-11140,-36,10456,367,-31490,1654,268438473
-9880,144,11692,307,-30247,3085,268438473
-8960,288,12724,1428,-28301,3763,268438473
-7516,428,13628,1781,-25621,3652,268438473
-6260,720,14548,1707,-23324,3148,268438473
-5364,916,15148,1188,-21596,1875,268438473
-4772,1192,15204,-124,-21913,1485,268438473
-3244,1148,15416,-630,-21105,1465,268438473
-2220,824,15112,596,-21199,959,268438473
-1360,856,15480,1968,-20214,498,268438473
-248,948,15716,2918,-19438,660,268438473
740,1480,16244,2760,-20049,544,268438473
1852,1744,16080,2052,-20235,483,268438473
3008,1668,16164,1418,-20164,478,268438473
3960,1620,15636,1446,-19567,667,268438473
4920,1804,15252,1961,-18643,694,268438473
5992,2080,15228,2113,-17668,474,268438473
6732,2328,14784,1677,-17565,320,268438473
7392,2300,14700,497,-17293,-305,268438473
8304,2024,14124,111,-17172,205,268438473
9208,2096,13456,868,-16373,649,268438473
9464,1620,12712,1082,-17056,380,268438473
10384,1852,12396,1477,-17069,631,268438473
11388,2156,12112,1292,-16036,267,268438473
11976,2108,11168,1449,-15150,610,268438473
12108,2196,10504,1724,-14918,523,268438473
12712,2144,10324,1717,-14030,171,268438473
13524,2392,9736,1834,-13598,303,268438473
13916,2472,8908,1845,-14016,342,268438473
14276,2412,8104,1986,-13309,162,268438473
14676,2184,7456,2223,-13236,633,268438473
14580,2360,6756,1491,-13714,924,268438473
15348,2300,6372,962,-14051,402,268438473
15696,2008,6152,983,-11222,506,268438473
15860,2268,5864,923,-9141,1057,268438473
16116,2312,4448,763,-10226,1648,268438473
16236,2448,3896,1281,-9907,1978,268438473
16096,2744,3528,1293,-11850,2234,268438473
15988,1960,2660,707,-15776,2666,268438473
16300,1804,1556,1103,-17897,3103,268438473
16564,1824,960,776,-17392,2518,268438473
16372,1504,376,-114,-16556,2342,268438473
16184,1608,-640,-1298,-15968,1689,268438473
16496,1464,-2040,-1339,-14786,692,268438473
16820,1488,-2852,-896,-13819,602,268438473
16844,1280,-2924,-465,-12386,905,268438473
17244,1492,-3592,-67,-10860,2078,268438473
16540,1232,-4372,-146,-9054,1885,268438473
17036,732,-4696,-246,-4752,1013,268438473
16936,1080,-5160,-66,159,370,268438473
16844,1316,-4836,-154,4280,-374,268438473
17000,1304,-4496,-450,6907,-403,268438473
17348,1208,-4364,-347,11097,-641,268438473
17264,776,-3192,105,15713,-703,268438473
17152,624,-2492,-9,20022,-973,268438473
17172,716,-1684,-373,25702,-1640,268438473
16856,808,56,-561,30218,-1927,268438473
15780,1948,2244,-756,27706,-470,268438473
16408,1472,3492,-1643,24284,500,268438473
16436,1844,4544,-1544,22259,777,268438473
15060,760,6256,-1606,23909,2012,268438473
14892,1112,7788,-1669,25935,3181,268438473
14104,1232,8656,-2342,26140,2141,268438473
13488,904,9484,-2642,26742,566,268438473
12336,1088,11100,-3069,28305,-306,268438473
11008,1280,12496,-3546,27255,-483,268438473
10124,664,13124,-4658,26930,-214,268438473
9328,492,13408,-4340,26151,-208,268438473
7700,-228,14280,-3087,27478,-446,268438473
6008,-100,15248,-2093,29928,-967,268438473
4268,-220,15396,-542,31023,-1613,268438473
2912,-200,15076,622,30991,-2182,268438473
2116,-200,15492,1918,28709,-2123,268438473
360,176,16108,2432,26723,-1595,268438473
-1868,720,17160,1368,24668,-1151,268438473
-3152,756,16720,-685,25438,-2034,268438473
-3824,-24,15164,-1229,25878,-2447,268438473
-4896,84,14176,-28,23160,-1250,268438473
-6608,172,14636,726,19371,-566,268438473
-7660,536,15128,-59,15578,-691,268438473
-8176,356,14112,-1131,14666,-1475,268438473
-8548,248,13620,-1383,15773,-1899,268438473
-9352,-40,12784,-1442,17922,-2258,268438473
-10156,-404,12100,-1069,18171,-2010,268438473
-10664,-668,11152,-500,16566,-1741,268438473
-11180,-788,10640,-258,14533,-1431,268438473
-11532,-584,10372,-307,14022,-1234,268438473
-12160,-824,9588,-686,13188,-1133,268438473
-12060,-760,8732,-232,13630,-1178,268438473
-12788,-872,8244,114,15887,-1266,268438473
-13364,-760,7628,159,18171,-1524,268438473
-14260,-256,6772,-486,18879,-1539,268438473
-14676,-776,5732,-1286,20129,-2234,268438473
-14556,-1208,4892,-1413,19910,-2796,268438473
-14536,-1172,3712,-1630,19932,-3552,268438473
-15036,-1444,2304,-1913,20352,-3681,268438473
-14992,-1780,968,-1862,18600,-3221,268438473
-15748,-2232,-408,-1634,15125,-2043,268438473
-15396,-2180,-1052,-1185,12645,-1455,268438473
-15368,-2312,-1416,-1242,11483,-1052,268438473
-15728,-2476,-2280,-1103,9288,-1076,268438473
-15328,-2372,-3008,-639,7979,-748,268438473
-15448,-2236,-3396,-84,7319,-622,268438473
-15680,-1960,-3360,130,6224,-944,268438473
-15420,-1984,-3512,-232,5972,-1138,268438473
-15716,-2416,-4408,-242,4169,-1062,268438473
-15672,-2396,-4456,-88,1701,-678,268438473
-15204,-2372,-4576,-233,-240,-152,268438473
-15432,-2500,-4484,-443,-2093,560,268438473
-15876,-2580,-4528,-332,-5734,1135,268438473
-16064,-2448,-3972,-105,-10049,1724,268438473
-16300,-2380,-3104,-111,-14293,2086,268438473
-15916,-2304,-2272,-101,-17506,1986,268438473
-15776,-2096,-1468,222,-19862,2310,268438473
-16040,-1820,-324,273,-20722,2697,268438473
-15124,-2136,1484,-507,-21094,3002,268438473
-14948,-1688,2352,-1166,-21863,3763,268438473
-15968,-1272,3800,-795,-21251,3899,268438473
-15812,-1120,5252,-950,-20893,2826,268438473
-14360,-1428,5584,-1661,-22750,1939,268438473
-13584,-1308,6208,-883,-24439,1976,268438473
-13664,-1016,7920,-64,-25166,1766,268438473
-12528,-520,9732,-191,-23974,1376,268438473
-11336,-656,10224,-769,-23620,1099,268438473
-10384,-836,10952,-442,-23817,549,268438473
-9280,-696,12108,67,-22174,251,268438473
-8324,-828,12460,-148,-21017,398,268438473
-7544,-704,12772,395,-20096,506,268438473
-6868,-632,13648,1182,-18751,169,268438473
-5972,-556,14412,831,-18777,213,268438473
-5172,-516,15008,294,-18605,128,268438473
-4540,-364,15096,442,-18575,-286,268438473
-3628,-388,15748,465,-18034,-221,268438473
-2408,-396,16008,340,-18297,-359,268438473
-1792,-576,16136,180,-18553,-849,268438473
-808,-612,15672,213,-18631,-1132,268438473
244,-496,16076,731,-19163,-1385,268438473
1252,-520,15588,1298,-19069,-1899,268438473
2184,-412,15696,1783,-19663,-1713,268438473
3320,-248,15376,2624,-19836,-1485,268438473
4304,112,15716,3037,-20171,-1061,268438473
5544,196,15220,3013,-20774,-995,268438473
6752,452,14776,2952,-21954,-959,268438473
7724,528,14412,3083,-21899,-1019,268438473
8600,748,13576,3353,-21803,-1265,268438473
9472,608,13188,3496,-21037,-1482,268438473
10232,1104,12228,3366,-19815,-1563,268438473
11300,1224,11436,3629,-19028,-1521,268438473
12056,1184,10884,4304,-17722,-1858,268438473
12800,1636,10736,4539,-18689,-1817,268438473
12908,2324,10308,3733,-20266,-1040,268438473
13708,2516,9536,2119,-23104,-122,268438473
14536,2456,8008,-184,-24744,475,268438473
15512,2240,6236,-2006,-23533,1168,268438473
16068,1836,5064,-2182,-20363,1104,268438473
16632,1436,4484,-1634,-16195,943,268438473
17168,1444,3456,-695,-11504,743,268438473
16940,1584,2700,115,-8334,575,268438473
16628,1732,2624,538,-8378,498,268438473
16308,1640,1848,1022,-9831,427,268438473
16484,1804,1432,1169,-11531,150,268438473
16504,1688,540,882,-13341,77,268438473
16736,1788,224,456,-13180,-306,268438473
16748,1688,-104,338,-11882,-282,268438473
16940,1560,-600,127,-8664,-561,268438473
17452,1588,-808,-128,-4130,-893,268438473
17520,1880,-1412,-67,-183,-769,268438473
17488,1860,-1092,-497,3160,-337,268438473
17192,1712,-884,-413,6189,-222,268438473
17188,1828,-324,-559,7852,325,268438473
17320,1672,252,-807,10156,578,268438473
17252,1672,768,-1246,13530,552,268438473
17048,1716,1436,-1739,16505,425,268438473
16816,1452,2276,-2002,20022,734,268438473
16368,1488,3212,-2026,22877,1457,268438473
15976,1484,4420,-2074,24371,1415,268438473
15956,1700,5992,-1989,24488,1320,268438473
15124,1096,7064,-2834,26269,1816,268438473
14448,1456,8640,-3385,28905,1451,268438473
13348,1180,10244,-3708,31301,1042,268438473
11632,1016,11596,-4482,32295,1921,268438473
10768,676,11928,-4890,30013,2333,268438473
9580,260,13060,-3160,28415,1507,268438473
8016,-88,13992,-1501,29765,1800,268438473
6508,308,15908,-2481,32767,1897,268438473
5108,-100,16104,-3190,32767,2158,268438473
3524,-532,15352,-1723,32767,1569,268438473
1928,-612,15116,557,32767,1254,268438473
-424,-452,15296,1576,32024,1704,268438473
-2940,-184,15932,1493,27077,1454,268438473
-4012,112,15312,1067,25561,952,268438473
-5788,64,15276,635,23916,582,268438473
-6484,-140,14908,-193,20437,-297,268438473
-7288,-328,14028,-879,14130,-711,268438473
-7236,-460,13072,61,10466,-546,268438473
-8252,-168,13424,1427,11715,-479,268438473
-8716,-256,13892,1740,12572,-1002,268438473
-8996,72,13320,887,11632,-1501,268438473
-9500,148,12572,596,11901,-1952,268438473
-10624,48,11912,325,13036,-1956,268438473
-10456,-424,11624,-70,13836,-1759,268438473
-10540,-536,10424,465,14989,-1481,268438473
-11008,-344,9964,1062,18387,-645,268438473
-12060,-224,9560,942,22149,-471,268438473
-13972,-340,8812,745,19829,-965,268438473
-13436,-336,8012,66,16361,-1330,268438473
-13644,-520,7076,-650,13936,-846,268438473
-14332,-520,6024,-1054,11913,-513,268438473
-14800,-652,4788,-1208,11378,-1082,268438473
-14748,-412,4220,-937,12961,-1747,268438473
-15300,60,3528,-688,16365,-3246,268438473
-15980,-452,3296,-1052,20504,-4947,268438473
-15308,-1300,1808,-1189,19275,-4914,268438473
-14620,-1832,320,-732,18018,-4089,268438473
-15404,-2108,-276,-185,17579,-3405,268438473
-14824,-2136,-872,-472,16185,-2764,268438473
-15060,-2292,-1796,-930,14049,-2040,268438473
-15068,-2112,-2860,-1392,12242,-1267,268438473
-15172,-2112,-3732,-1817,11374,-442,268438473
-15328,-2012,-4376,-1862,11322,433,268438473
-16032,-2352,-5348,-1479,9994,483,268438473
-15732,-2216,-5496,-874,8312,-397,268438473
-14940,-1912,-5732,-611,7936,-1013,268438473
-15240,-2240,-6520,-321,7513,-874,268438473
-15324,-2448,-7244,358,3862,-432,268438473
-14976,-2088,-6928,230,-1081,194,268438473
-14712,-1856,-6452,-180,-4490,762,268438473
-14644,-2060,-6268,-805,-6962,669,268438473
-15144,-2428,-6608,-740,-10326,1253,268438473
-15444,-2520,-5528,-31,-15717,2380,268438473
-15216,-2108,-4200,-120,-19470,2863,268438473
-15592,-1660,-3132,-326,-20842,3276,268438473
-15572,-1540,-2096,-430,-21967,3153,268438473
-15424,-1088,-860,-374,-21952,3418,268438473
-15036,-1044,516,-445,-21221,3405,268438473
-15308,-580,2008,-112,-18720,3096,268438473
-15696,-872,3472,-325,-16430,2563,268438473
-15392,-872,3808,-1066,-17457,1905,268438473
-15052,-920,4408,-976,-20044,1376,268438473
-14760,-876,5680,-382,-20528,1143,268438473
-14168,-544,7144,-214,-21479,1214,268438473
-13404,-260,8112,-384,-22221,1246,268438473
-12840,-700,8720,-227,-24376,1406,268438473
-11896,168,10376,-161,-25229,1076,268438473
-10776,-100,11160,-717,-24951,1265,268438473
-10148,-528,11516,-621,-25451,1406,268438473
-8924,-252,12344,-384,-25009,1501,268438473
-8020,-136,13280,-249,-24409,1119,268438473
-7020,-72,14460,-359,-23483,824,268438473
-5988,-484,14472,-1036,-22299,-486,268438473
-4628,-332,14900,-747,-23674,-1545,268438473
-2884,-224,15208,189,-27105,-1949,268438473
-1596,-436,15420,1497,-29592,-2458,268438473
4,-112,15456,2631,-30457,-2686,268438473
1320,88,16024,3703,-29995,-2596,268438473
3136,256,15704,3431,-28977,-2788,268438473
4080,620,15832,2959,-27355,-3040,268438473
5840,988,15656,1393,-26318,-3141,268438473
6992,1296,14952,-65,-25824,-3105,268438473
8268,956,15136,-218,-25988,-2932,268438473
10104,852,13012,1954,-22745,-901,268438473
10384,916,13252,2886,-19576,-1002,268438473
10584,1128,12180,2756,-18469,-953,268438473
11604,788,11260,3580,-17252,-749,268438473
12596,1452,10752,4139,-16695,-1025,268438473
12932,1736,10504,3613,-15378,-954,268438473
12940,1880,10004,2846,-15905,-567,268438473
13704,1904,9596,1972,-16337,-175,268438473
14292,2024,8548,915,-15806,484,268438473
14936,1940,7580,888,-14777,542,268438473
15112,1908,6664,812,-14769,867,268438473
15752,1780,6252,580,-15000,557,268438473
16368,1652,5108,129,-13171,977,268438473
16384,1800,4136,190,-12745,1658,268438473
15760,1996,3232,405,-13295,1730,268438473
16420,1712,3164,674,-13554,1100,268438473
16700,1232,2600,793,-12542,1625,268438473
16740,1228,1552,1045,-10929,2095,268438473
16232,1084,328,1417,-10717,2468,268438473
15968,1372,324,1588,-11299,1945,268438473
16732,1500,12,1080,-10641,344,268438473
17880,1332,-332,703,-6979,-395,268438473
18124,1064,-428,345,-766,-358,268438473
17536,1232,-256,-281,5846,-265,268438473
17600,1004,8,-737,11700,-54,268438473
17612,1152,548,-806,16576,359,268438473
17436,776,1720,-1508,21991,435,268438473
17028,1088,2872,-2127,26827,208,268438473
16136,832,4280,-2516,31506,-228,268438473
15472,1052,5268,-1970,32767,-957,268438473
13960,1292,7216,-1497,32767,-1495,268438473
12488,1524,9196,-1899,30632,-2025,268438473
11976,1472,10604,-2426,26913,-2559,268438473
11284,1304,11768,-2845,26214,-1868,268438473
10356,1312,12592,-2288,26039,-1070,268438473
9192,988,12936,-1407,23943,-35,268438473
8068,920,13972,-915,23639,262,268438473
7040,1020,14444,-485,23170,-121,268438473
5520,976,15168,-692,24736,-607,268438473
4232,1056,15728,-1027,25657,-553,268438473
2924,1228,16396,-1567,26587,-315,268438473
1992,1072,16672,-2027,27772,-663,268438473
188,1048,16572,-2364,28834,-140,268438473
-1408,688,16096,-1447,29617,-409,268438473
-2748,260,15640,726,29010,-560,268438473
-3996,568,15168,1514,27273,-72,268438473
-5532,380,14960,1326,23699,-403,268438473
-6796,528,14540,1032,20679,-1532,268438473
-8064,680,13924,745,17752,-1912,268438473
-8692,512,13284,503,14100,-1707,268438473
-9336,512,12740,112,10512,-1758,268438473
-9456,608,12388,42,9774,-1755,268438473
-9560,416,12164,67,8996,-1521,268438473
-10092,284,11932,317,8699,-1056,268438473
-10224,308,11744,528,9469,-643,268438473
-10828,472,11380,534,10424,-104,268438473
-11440,644,11240,292,12414,193,268438473
-11336,820,10500,-77,15341,201,268438473
-12456,596,9908,-112,16722,95,268438473
-12608,324,8960,-378,17102,-424,268438473
-13548,552,8344,-281,17110,-723,268438473
-13476,280,7316,-618,15363,-1030,268438473
-14208,112,6492,-832,13484,-1432,268438473
-14452,48,5776,-973,12005,-1746,268438473
-14360,96,5136,-768,12184,-2275,268438473
-14328,-28,4676,-567,14045,-2241,268438473
-15168,-276,3272,-374,15247,-1957,268438473
-15848,-92,2480,-15,14432,-2177,268438473
-15800,-500,2152,-9,13649,-2814,268438473
-15656,-608,1420,-8,13435,-2718,268438473
-15544,-576,524,-20,13878,-2610,268438473
-15540,-992,-36,-145,14123,-2790,268438473
-15200,-720,-1184,-678,13536,-2561,268438473
-15196,-1476,-1988,-854,11150,-1098,268438473
-15768,-1628,-2528,-553,7453,246,268438473
-15884,-1484,-2668,-412,4169,420,268438473
-15872,-916,-2672,-848,2446,272,268438473
-15924,-776,-2956,-1150,1098,-89,268438473
-15892,-948,-3136,-1193,74,23,268438473
-15068,-1204,-3476,-783,-1287,111,268438473
-15560,-932,-3284,-465,-2002,674,268438473
-15888,-964,-2892,-406,-3926,643,268438473
-15968,-884,-2864,-319,-6964,478,268438473
-15792,-892,-2128,-755,-10761,554,268438473
-15360,-712,-1324,-1199,-14087,1549,268438473
-15848,-952,-896,-1684,-17210,2518,268438473
-15972,-1184,-44,-1830,-21794,2801,268438473
-14716,-1024,1728,-1683,-24445,2597,268438473
-14844,-428,2880,-1374,-22511,2398,268438473
-14908,-192,3836,-936,-18916,2532,268438473
-14884,-564,5316,-572,-18122,2735,268438473
-14488,-92,6580,-377,-18235,2741,268438473
-14412,-168,7624,-48,-18647,2178,268438473
-14000,76,8412,-106,-21375,1236,268438473
-13032,316,9088,-112,-22871,1195,268438473
-11812,500,10316,85,-22223,1502,268438473
-11072,216,10716,187,-22003,1523,268438473
-9860,312,11492,581,-22438,1479,268438473
-9148,152,11992,1479,-22264,1517,268438473
-8480,520,12864,2210,-23177,1203,268438473
-7128,916,13724,2727,-23281,1182,268438473
-6172,1216,14964,2196,-21887,1201,268438473
-4904,1260,15284,1199,-22674,1113,268438473
-3824,1460,15568,1261,-21144,658,268438473
-2944,1556,15860,1285,-20489,738,268438473
-1636,1216,15768,875,-19452,1143,268438473
-592,1508,15912,621,-18058,1078,268438473
76,1248,15952,29,-16641,1057,268438473
1176,1364,15860,-630,-17305,1278,268438473
2160,1200,15912,-470,-17087,1042,268438473
2856,1408,15908,657,-17144,713,268438473
3392,1428,16180,715,-16395,878,268438473
3996,1676,15352,-407,-18268,833,268438473
5092,1380,15292,-787,-17756,299,268438473
6040,1592,15192,-1675,-19623,189,268438473
7208,1264,14548,-2020,-20448,531,268438473
7780,1320,13732,-1957,-21407,683,268438473
8736,1032,13884,-1840,-23786,42,268438473
11160,780,11964,1909,-20140,548,268438473
11788,996,12392,3489,-15643,751,268438473
11932,1440,12488,2503,-13170,1147,268438473
12120,1288,11524,1405,-11696,1830,268438473
12568,1080,11028,727,-10332,1331,268438473
12896,884,10536,679,-10466,1085,268438473
12868,1080,9940,1362,-12969,1224,268438473
13028,1288,9080,1545,-16747,1132,268438473
13804,1392,8380,1075,-18443,811,268438473
14396,1480,7464,673,-18345,47,268438473
15076,1072,7080,-123,-16930,-174,268438473
15772,848,6444,-599,-12326,-409,268438473
16592,1012,5340,-77,-8715,-111,268438473
16280,1276,4728,328,-7506,434,268438473
16388,1104,4336,675,-7684,742,268438473
16260,1332,4152,949,-9166,1119,268438473
15928,952,3720,857,-11220,1128,268438473
15836,896,2904,1297,-11839,532,268438473
16368,908,2512,1676,-10281,37,268438473
16680,1316,2228,1166,-7809,96,268438473
17220,1400,1968,927,-5158,-36,268438473
17064,1268,2104,602,-1255,-192,268438473
16464,1048,2576,-157,1426,-252,268438473
16836,1324,2808,-1195,4397,-582,268438473
17220,1248,2640,-1755,7937,-459,268438473
17084,1176,2584,-2197,11640,-124,268438473
16692,848,3352,-2158,14847,-206,268438473
16204,920,4164,-2369,17733,-278,268438473
16260,1080,5120,-2828,20413,-612,268438473
15788,1028,6148,-3276,23007,-749,268438473
14768,820,7056,-3658,23976,-947,268438473
13972,864,8132,-3243,24764,-1457,268438473
13060,812,9336,-2713,26139,-1862,268438473
12096,896,10936,-1983,27147,-1653,268438473
10944,916,11848,-1130,26207,-1104,268438473
9796,884,12824,-429,27074,-733,268438473
8648,920,14052,-14,27136,-249,268438473
7744,920,14532,5,27968,452,268438473
6324,988,15312,-68,28244,-164,268438473
4888,1020,15832,-93,28159,-765,268438473
3392,924,15940,-81,26869,-731,268438473
2432,872,15864,121,24696,-872,268438473
588,784,16396,870,23412,-1065,268438473
-516,1304,16756,817,22926,-1247,268438473
-1656,1260,16924,100,21623,-1981,268438473
-3048,1080,16196,-626,18786,-1948,268438473
-3576,728,15448,-948,17542,-1781,268438473
-4632,1056,15160,-726,15965,-2041,268438473
-5372,784,14952,-720,15592,-2321,268438473
-5748,624,14492,-973,15143,-2286,268438473
-6676,624,13988,-719,14921,-1816,268438473
-7472,520,14132,-252,14724,-1254,268438473
-7772,600,13688,-467,14338,-917,268438473
-8384,600,12784,-324,15805,-541,268438473
-9724,512,12428,185,16385,-547,268438473
-10284,524,11888,46,16278,-846,268438473
-10680,380,11380,-130,16294,-1255,268438473
-11268,140,10716,-176,15758,-1270,268438473
-12152,36,10036,223,14047,-624,268438473
-12824,472,9184,632,12802,-589,268438473
-13444,-12,8296,1394,10148,-1365,268438473
-12992,204,8264,1280,8542,-1678,268438473
-12888,-172,7796,1032,8021,-1640,268438473
-13640,164,7340,1304,9540,-2060,268438473
-12700,56,7500,613,10992,-1745,268438473
-13380,-396,6884,-376,12534,-1023,268438473
-14164,-268,5804,-700,12285,-5,268438473
-14308,-4,5204,-982,13176,265,268438473
-14844,-400,4372,-1014,14046,427,268438473
-15088,-360,3348,-829,13581,24,268438473
-15856,56,2828,-1365,12753,-987,268438473
-15468,-456,2124,-1886,11824,-1426,268438473
-15720,-300,1068,-1499,9290,-1067,268438473
-15664,-344,460,-807,6957,-453,268438473
-15432,-372,848,-452,5497,159,268438473
-15608,-228,872,-590,4901,371,268438473
-15832,-140,928,-1134,4839,202,268438473
-16180,-380,-204,-1471,3993,93,268438473
-16064,-360,-460,-807,1615,234,268438473
-16184,-68,-556,-569,-638,163,268438473
-16164,-268,-44,-705,-4276,54,268438473
-15696,-404,-92,-625,-8422,-65,268438473
-15372,-536,280,-586,-12441,632,268438473
-15508,-380,1216,-686,-16165,1758,268438473
-15644,-172,2484,-1367,-20158,3051,268438473
-15392,12,3216,-2035,-23947,3496,268438473
-15000,76,4572,-2405,-26613,3976,268438473
-14836,264,6224,-2115,-25523,3581,268438473
-13888,492,7444,-2334,-22657,2202,268438473
-12844,264,8268,-2443,-21703,1584,268438473
-12020,208,9460,-1113,-21958,1991,268438473
-11436,372,10636,32,-20765,2345,268438473
-10864,820,11636,-290,-19892,2438,268438473
-10268,644,11916,-617,-20712,2265,268438473
-9116,732,12728,505,-20152,1487,268438473
-8320,720,13200,1434,-21067,784,268438473
-6844,516,13232,1405,-22391,971,268438473
-5628,740,14292,1941,-22522,1459,268438473
-4604,1116,14764,2658,-22147,941,268438473
-3612,1372,15036,2399,-22016,626,268438473
-2472,1660,15104,2157,-18265,-242,268438473
-2032,1340,15296,2430,-15473,-1614,268438473
-1208,1572,16104,1913,-15099,-2541,268438473
332,1788,16464,275,-16425,-1606,268438473
824,2244,17080,-846,-17276,-834,268438473
1548,2052,16396,-954,-16673,-897,268438473
2700,1716,16072,-273,-16871,-424,268438473
3500,1448,15860,-22,-17695,480,268438473
4332,1436,15332,-8,-18074,986,268438473
4788,1588,15836,-265,-18900,1170,268438473
5696,1700,15756,-914,-18757,1053,268438473
6868,1748,15316,-1904,-18421,730,268438473
7900,1460,14384,-2313,-17864,616,268438473
8416,1332,13440,-2208,-19411,842,268438473
8852,944,12952,-2184,-21873,634,268438473
10000,944,12560,-2015,-24027,611,268438473
11056,1104,12160,-1916,-24723,273,268438473
12108,920,11204,-2066,-23793,-78,268438473
12912,852,10120,-1945,-23202,-750,268438473
13680,956,8916,-1417,-23948,-1214,268438473
15160,284,6716,1218,-23487,-295,268438473
15208,324,6104,2281,-17845,133,268438473
15364,836,5932,2201,-15488,-133,268438473
15840,860,5320,1973,-13116,142,268438473
16232,924,4316,2012,-10760,47,268438473
16384,1232,3608,2335,-9924,78,268438473
16860,1220,3704,2021,-9214,163,268438473
16616,1284,3540,1217,-9420,384,268438473
16368,1028,2780,687,-9579,141,268438473
16716,1240,2412,392,-9433,-74,268438473
17020,1376,1972,114,-9011,22,268438473
16944,1384,1816,-281,-8451,9,268438473
17188,1268,1224,-599,-5539,-17,268438473
17168,884,796,-971,-652,-344,268438473
17196,816,476,-855,3607,-809,268438473
17652,1124,880,-769,8438,-847,268438473
17592,1096,1904,-1139,13372,-619,268438473
16980,988,2520,-1737,18405,-609,268438473
16092,1068,3180,-2025,21009,-1160,268438473
15884,1380,4388,-1756,21902,-1342,268438473
15268,1328,5748,-2178,24779,-1877,268438473
14556,1280,6732,-2279,26142,-2597,268438473
13916,1496,8548,-1606,27676,-2642,268438473
12880,992,9432,-297,27597,-1151,268438473
12288,1228,10480,368,28931,517,268438473
11264,1268,11900,1330,29374,1032,268438473
10220,1744,13228,2207,28439,1249,268438473
8724,1572,13976,2033,29299,1134,268438473
7268,1920,15112,2134,30180,1236,268438473
6108,2000,15608,538,30791,1471,268438473
4104,1856,15844,-1259,27613,1940,268438473
2732,1668,15844,-3101,25147,2432,268438473
1404,1616,16084,-3273,24956,2305,268438473
24,1324,16072,-3454,24912,1925,268438473
-1040,884,15576,-3651,23087,1459,268438473
-2008,564,15552,-3686,19441,1799,268438473
-3008,640,15652,-2089,17030,1703,268438473
-4280,280,14728,677,14371,540,268438473
-5064,528,14552,2499,11848,-18,268438473
-5164,756,15004,2577,11428,-354,268438473
-5704,984,15452,1541,11714,-1140,268438473
-6808,1200,14840,1331,11951,-2066,268438473
-6824,1068,14500,929,13012,-2717,268438473
-7160,1004,13788,1329,14109,-2746,268438473
-8104,984,13476,1521,14596,-2346,268438473
-8924,920,12988,1587,15375,-2390,268438473
-9316,932,12592,1779,17513,-2637,268438473
-10128,900,12588,1571,17621,-2537,268438473
-11580,1420,12100,1018,16358,-2089,268438473
-11308,296,10876,-604,16648,-2294,268438473
-12064,220,9608,-598,14827,-2651,268438473
-12376,600,8356,-691,13642,-2505,268438473
-13324,340,8084,-518,13943,-2509,268438473
-13520,156,7564,-512,13590,-2641,268438473
-13692,96,6824,-641,12816,-2368,268438473
-13808,700,6072,-260,13153,-1579,268438473
-14252,8,5552,-66,13900,-887,268438473
-14828,-348,5344,153,14539,-1793,268438473
-14576,-412,4828,-255,14882,-2698,268438473
-15004,-448,3176,-737,15522,-2517,268438473
-15508,-668,1824,-386,12046,-1251,268438473
-15364,-656,1552,327,9225,-374,268438473
-15160,-808,1564,149,7822,-37,268438473
-15200,-464,1236,-455,8422,285,268438473
-15620,-772,484,-1211,7383,910,268438473
-16072,-660,-396,-1013,5422,1050,268438473
-15988,-408,-572,-241,4536,455,268438473
-15792,-180,-144,-9,4683,105,268438473
-16008,88,-440,-198,4360,191,268438473
-16032,-248,-868,-665,3906,242,268438473
-15772,-320,-1224,-691,3736,231,268438473
-15608,-404,-1172,-434,3762,204,268438473
-16200,-324,-1540,-768,3314,-11,268438473
-16780,-552,-2144,-1304,982,-116,268438473
-15612,-604,-2320,-1266,-3278,118,268438473
-15456,-368,-1644,-702,-5853,991,268438473
-15932,4,-1412,-759,-8534,1371,268438473
-15984,-268,-704,-813,-10924,1509,268438473
-16080,-128,-184,-1103,-14409,1822,268438473
-15960,-728,284,-1604,-18121,2381,268438473
-15440,-552,1704,-2107,-22132,2540,268438473
-15388,376,3064,-2290,-26122,2860,268438473
-14660,484,4708,-2088,-28148,2689,268438473
-13864,460,6440,-2145,-29290,2022,268438473
-13048,796,7516,-1082,-30156,2997,268438473
-13012,780,8636,717,-31412,3254,268438473
-11012,164,10020,1687,-32768,2562,268438473
-9728,480,11752,3089,-32768,1436,268438473
-7604,1160,13392,4086,-32768,324,268438473
-6452,1860,14780,3729,-32170,623,268438473
-5324,2116,15460,2727,-27163,1474,268438473
-4168,1720,15660,1278,-24258,1315,268438473
-2884,1556,15320,326,-23580,275,268438473
-1512,1736,16168,-84,-23841,-851,268438473
-44,1796,15760,-439,-22503,-1086,268438473
856,1492,15948,312,-19793,-602,268438473
1636,1628,16052,926,-16281,-254,268438473
2388,1716,16384,1302,-12599,-33,268438473
3448,2048,16588,831,-9975,498,268438473
3676,1796,16448,-587,-8766,1367,268438473
4124,1588,15708,-1856,-9344,2166,268438473
4580,1624,15544,-2290,-10835,2637,268438473
5012,1328,15068,-1892,-11873,2751,268438473
5404,1480,15044,-1322,-13998,2348,268438473
6048,1536,15020,-1476,-15304,1402,268438473
7212,1236,14600,-1073,-16729,425,268438473
7764,1452,14364,-1033,-16853,-588,268438473
8644,1344,13944,-1275,-15542,-1101,268438473
9384,1120,13360,-1755,-14615,-824,268438473
10164,1084,12972,-1548,-14467,-442,268438473
10716,956,12640,-1288,-13217,-178,268438473
10872,1036,11956,-1160,-13295,-606,268438473
11372,1228,11616,-885,-15106,-1269,268438473
12164,1368,11032,-1015,-15636,-1515,268438473
12952,1448,10540,-544,-15180,-1092,268438473
13416,1252,9628,-694,-16628,-903,268438473
13532,996,8612,-947,-17029,-1083,268438473
14340,752,7704,-1001,-16789,-1048,268438473
15172,1084,6940,-577,-17042,-1020,268438473
15992,1464,6596,-115,-15791,-1413,268438473
16208,1268,5960,-253,-12771,-1503,268438473
15896,1212,5196,-699,-9549,-2013,268438473
16384,1284,5220,-787,-5879,-1722,268438473
16372,1220,4800,-457,-2864,-975,268438473
16000,1380,4600,-24,-1954,-2,268438473
15828,1532,4620,475,-3184,710,268438473
15332,1240,4572,390,-3476,622,268438473
15508,1312,4800,-77,-3704,351,268438473
16000,1384,4028,-740,-3164,-23,268438473
16312,1388,3580,-556,-1307,-307,268438473
16568,1552,3436,-116,329,-780,268438473
17040,1492,3932,41,1585,-325,268438473
16828,1468,4128,-82,4267,182,268438473
16428,1208,4208,-63,7231,68,268438473
16168,1128,4576,245,9303,233,268438473
15448,1368,4924,467,11270,409,268438473
15244,1436,5952,382,14279,-441,268438473
14992,1496,6640,-23,16777,-1277,268438473
14868,1448,7864,-328,19885,-1270,268438473
14220,1548,8460,204,21196,-304,268438473
13580,1520,9328,778,22387,258,268438473
13056,1672,10376,1408,23933,567,268438473
11752,1800,11692,1454,23764,1275,268438473
10696,1576,12240,782,23096,1781,268438473
9180,1912,13136,41,22553,1375,268438473
8460,1636,13648,-44,19486,1350,268438473
7744,1688,14160,-435,17175,1582,268438473
6924,1552,14420,-751,14939,1423,268438473
6316,1056,14864,-1176,13500,1114,268438473
5884,1264,15480,-954,12385,247,268438473
5204,1432,15668,-769,11945,-399,268438473
4856,1432,15816,-818,12081,-163,268438473
3960,1156,15752,-1008,12980,378,268438473
3256,1136,16020,-653,13009,115,268438473
2484,824,16148,-342,14522,-12,268438473
1948,1176,16300,4,15123,-52,268438473
1216,1284,16244,-90,15042,-14,268438473
240,1344,16544,-648,14508,202,268438473
-416,1132,15920,-956,13090,177,268438473
-1356,1056,15588,-791,12787,-687,268438473
-1592,968,16096,-284,13096,-1192,268438473
-2480,1004,15636,-403,13615,-1034,268438473
-3340,932,15748,-185,14999,-954,268438473
-3860,792,15636,-366,16734,-1442,268438473
-4788,996,15472,-714,17877,-1655,268438473
-5980,1064,14608,-1022,18131,-1727,268438473
-6680,828,13820,-846,19140,-1860,268438473
-7392,636,13892,-168,19807,-1966,268438473
-8500,536,13424,388,19647,-1959,268438473
-9648,712,12884,206,17702,-1859,268438473
-10180,400,12292,-314,17053,-2122,268438473
-10860,568,11336,-303,18001,-2415,268438473
-11176,-176,10504,120,20306,-2407,268438473
-11852,92,9648,662,21228,-1700,268438473
-12708,-164,8860,611,20249,-577,268438473
-14112,-424,7684,440,17000,-375,268438473
-13792,-128,6860,215,14787,-953,268438473
-14444,140,5796,-4,14213,-1014,268438473
-14616,84,5064,-100,13798,-1234,268438473
-14588,-184,4528,-341,12101,-798,268438473
-14760,-496,3876,-176,10803,-379,268438473
-15340,-512,3404,-122,8892,-122,268438473
-15388,-92,3232,15,7705,2,268438473
-14904,-40,3404,-93,8317,-229,268438473
-15564,12,2452,-629,8047,72,268438473
-15912,-364,1676,-386,6537,-361,268438473
-15532,-196,1688,-132,5461,-631,268438473
-15612,-188,1416,-498,4765,-690,268438473
-15576,-176,760,-696,4880,-938,268438473
-15108,-392,648,-373,5118,-575,268438473
-16112,-352,144,-193,4051,-82,268438473
-15776,-336,280,-306,3230,-557,268438473
-15692,-492,36,-443,2220,-159,268438473
-16208,-336,-296,-124,255,22,268438473
-16248,-252,-124,-200,-1036,-458,268438473
-15452,-400,148,-527,-1918,-430,268438473
-15752,-268,-188,-346,-2935,102,268438473
-16132,-208,312,-226,-5390,253,268438473
-15852,-236,1104,-701,-5662,26,268438473
-15596,-704,800,-1202,-7754,309,268438473
-15436,-1104,1156,-1182,-10915,1132,268438473
-15788,-208,1636,-1711,-15728,2702,268438473
-14596,-532,2848,-1976,-21187,3660,268438473
-15392,-236,3932,-1403,-23957,3385,268438473
-14812,8,5516,-1300,-27704,2989,268438473
-14224,452,7084,-690,-27642,2335,268438473
-13084,228,8784,-472,-27538,1756,268438473
-12104,292,9020,-27,-28841,1377,268438473
-11344,320,10720,2104,-28775,1350,268438473
-9744,580,12448,3587,-27037,772,268438473
-8388,828,13120,2724,-26728,910,268438473
-6908,596,13100,2360,-29891,1015,268438473
-5600,976,14572,3974,-29507,495,268438473
-4516,1928,15392,4135,-25706,643,268438473
-3724,1740,16340,2891,-22561,1498,268438473
-2544,1804,16040,1387,-20153,1059,268438473
-1956,1760,16124,569,-18202,235,268438473
-1048,1668,15856,651,-16058,-229,268438473
-96,1500,15876,740,-15300,-156,268438473
1200,2000,16196,525,-15242,24,268438473
1728,2048,15836,667,-15148,160,268438473
2220,1816,15696,815,-15064,443,268438473
3304,1956,15524,1073,-15223,240,268438473
4112,1984,15268,1251,-15274,-12,268438473
4500,2376,15544,1900,-14041,-184,268438473
5364,2480,15484,2106,-12583,-337,268438473
5972,2108,15112,1664,-11820,-411,268438473
6784,1928,14708,832,-12631,-152,268438473
7440,2720,14372,277,-13683,502,268438473
7876,2456,13656,892,-14447,1005,268438473
8216,2584,13636,1683,-14863,1066,268438473
9188,2516,13248,1636,-14676,1121,268438473
10084,2648,12884,1535,-15158,1294,268438473
10760,2756,12696,832,-15406,1494,268438473
11108,2756,12088,548,-14568,1091,268438473
11684,2296,11408,717,-14370,793,268438473
12628,2344,10848,685,-13916,997,268438473
13556,2688,10088,676,-14186,849,268438473
13488,2520,9268,338,-16194,1395,268438473
13520,2516,8340,-80,-18696,1466,268438473
13780,2396,8080,208,-18970,435,268438473
14696,2516,7964,-1214,-18837,-1180,268438473
14980,2620,6768,-2524,-17633,-1782,268438473
15524,2468,5012,-2110,-16218,-1340,268438473
15928,2680,4200,-1216,-16920,-377,268438473
16048,2524,3708,-716,-16536,165,268438473
16428,2228,3316,-717,-13646,-409,268438473
16684,2212,2436,-1046,-10117,-815,268438473
17284,2352,1724,-879,-5352,-489,268438473
17620,2288,1424,-204,536,112,268438473
17292,2316,1572,398,5721,509,268438473
17040,2156,2088,715,10588,410,268438473
17036,2352,2656,843,15341,236,268438473
16436,2224,3852,1124,21426,-458,268438473
15672,2320,4924,1306,26516,-1252,268438473
14816,2496,6316,1547,29574,-1441,268438473
13920,2824,8088,1601,30956,-1179,268438473
12984,3012,9484,1326,29893,-1403,268438473
12148,3248,11084,88,27148,-1391,268438473
10992,3260,12008,-1023,25605,-1451,268438473
10324,3188,13036,-2167,23496,-1002,268438473
9452,3252,13392,-2981,22660,-431,268438473
8420,2900,13772,-3518,22153,-298,268438473
7616,2444,13920,-3549,21823,193,268438473
6564,2420,14636,-2836,22000,561,268438473
5332,2328,15352,-1902,23865,1358,268438473
4260,2252,16096,-1904,24207,1386,268438473
2456,2112,16224,-2781,22850,735,268438473
844,1808,16168,-3948,21678,56,268438473
300,1644,15976,-4263,20221,-779,268438473
-688,1232,15428,-3405,17734,-1368,268438473
-1940,1408,15292,-1471,16964,-1757,268438473
-3404,1368,15080,-215,15939,-1397,268438473
-3788,948,15424,733,13277,-1095,268438473
-4004,1124,15864,1355,13137,-1314,268438473
-4512,1488,15680,662,14742,-1380,268438473
-5504,1872,15152,-260,16831,-1486,268438473
-6360,1504,14304,-832,19285,-1918,268438473
-6952,1696,13700,-889,20532,-1504,268438473
-8936,1316,12148,-633,21109,-897,268438473
-8836,672,11956,-70,21912,-935,268438473
-10040,764,11960,518,23870,-899,268438473
-11304,420,11224,-305,21648,-625,268438473
-12316,384,10492,568,18190,-1142,268438473
-12220,496,9524,1964,11858,-1610,268438473
-12268,776,9688,2006,12884,-1772,268438473
-12076,1164,8820,1093,15867,-1830,268438473
-13524,1012,7844,74,19063,-1461,268438473
-14164,912,6372,-1046,18215,-1128,268438473
-14876,548,4932,-1256,15018,-468,268438473
-15132,576,4396,-509,11941,-87,268438473
-15560,440,4292,238,10955,-873,268438473
-15412,684,4152,35,10056,-1631,268438473
-15788,1024,3488,-446,11458,-2012,268438473
-15244,68,2188,-797,10613,-1927,268438473
-15396,80,1520,-74,9952,-1120,268438473
-15848,232,1304,-40,7669,-460,268438473
-16004,184,880,-374,5689,-345,268438473
-15320,192,432,-450,5535,-817,268438473
-15836,-108,40,-139,3898,-661,268438473
-15800,52,280,-146,1437,-589,268438473
-15408,108,44,-449,-223,-709,268438473
-15332,136,156,-212,-983,-355,268438473
-15768,80,404,-318,-2238,5,268438473
-15972,36,508,-484,-4048,156,268438473
-16284,-180,380,-707,-6305,308,268438473
-15804,-504,1048,-1217,-8809,199,268438473
-15968,-112,1052,-1351,-10512,570,268438473
-15388,-136,1752,-818,-14439,1522,268438473
-15536,-44,2608,-255,-16843,2403,268438473
-15240,64,4156,-712,-18752,2418,268438473
-14868,452,5668,-1505,-20115,2057,268438473
-14640,708,6072,-1939,-21183,2028,268438473
-14060,312,7148,-2086,-22883,1496,268438473
-13492,596,8196,-1138,-23959,1020,268438473
-12576,728,9480,-498,-24930,833,268438473
-10624,176,10524,-171,-26481,496,268438473
-10136,348,10856,1530,-27685,1345,268438473
-8748,568,11924,3389,-27823,1734,268438473
-7696,724,13140,3743,-26696,1715,268438473
-6424,812,13768,3569,-29297,1985,268438473
-4980,1500,14316,5103,-29281,2056,268438473
-3768,1584,15260,5314,-28664,2220,268438473
-2684,2236,16152,3920,-27546,2040,268438473
-1132,2748,15796,1859,-27064,1171,268438473
604,2684,16224,1767,-25811,204,268438473
1264,2644,16008,1923,-24487,-985,268438473
2296,2756,15828,1517,-22641,-1274,268438473
4024,2660,15376,870,-21257,-1198,268438473
5156,2452,15040,692,-20390,-1108,268438473
6156,2284,14664,897,-17801,-1214,268438473
6696,2556,14160,1001,-15874,-1351,268438473
7928,2812,14184,1255,-15660,-989,268438473
9276,3072,14156,1837,-15066,-545,268438473
9492,3272,14104,1548,-14937,181,268438473
9664,3612,12940,1009,-15009,1009,268438473
9904,3904,12080,1299,-19196,685,268438473
10812,3712,11472,2600,-22630,1484,268438473
11284,3464,11364,2563,-22833,2202,268438473
12528,2916,10236,1899,-21768,1866,268438473
13544,2688,8932,1293,-20125,1830,268438473
14752,2828,8096,1355,-18186,2521,268438473
15096,2720,7444,1252,-16218,3114,268438473
15236,2812,7088,1024,-14268,3067,268438473
15476,2944,6372,676,-13706,2680,268438473
15340,2508,5580,252,-13245,2516,268438473
15488,2448,4568,-80,-13515,2278,268438473
15684,2312,3520,-594,-14744,1506,268438473
15740,2280,2480,-527,-15854,952,268438473
16152,2432,1488,-483,-17979,762,268438473
16900,2192,824,-438,-19037,474,268438473
17316,2568,396,-657,-17436,-144,268438473
17200,2124,124,-720,-12900,-644,268438473
17280,1988,-972,-763,-8915,133,268438473
16680,2220,-1852,-976,-7018,424,268438473
16596,2280,-1944,-975,-6673,374,268438473
17024,2444,-2008,-482,-5290,569,268438473
17424,2080,-2392,251,94,693,268438473
16936,2312,-2424,343,3282,560,268438473
16992,2212,-2124,80,5712,558,268438473
17316,2004,-2040,-313,9507,574,268438473
17424,2240,-1372,-682,16228,113,268438473
17340,1848,-404,-975,22061,-527,268438473
17460,1588,840,-1093,27514,-918,268438473
16564,1984,2432,-437,32673,-1104,268438473
15700,2140,4036,891,32767,-859,268438473
14452,2060,6744,1342,32767,-696,268438473
13552,2472,8792,-188,32283,-1737,268438473
13144,2832,9848,-1902,28085,-2316,268438473
12348,2764,11108,-3133,27032,-1839,268438473
11452,2456,11636,-3672,26225,-1639,268438473
10444,2312,12436,-3492,26269,-1324,268438473
9264,2300,13204,-3460,27297,-832,268438473
8124,2300,13876,-3087,27644,-306,268438473
6376,2064,14780,-3010,28236,-171,268438473
4724,2068,15528,-2867,28482,254,268438473
3224,1768,16148,-2625,29150,587,268438473
1948,1480,16172,-3114,29106,717,268438473
428,1352,16376,-3975,28472,187,268438473
-928,1428,16288,-4066,26377,-112,268438473
-2296,1136,15996,-3508,24215,-300,268438473
-3396,736,15672,-2556,23879,-655,268438473
-4696,556,15116,-1379,26376,-1549,268438473
-6280,608,14364,-288,26579,-2257,268438473
-7040,692,14096,-335,27886,-2329,268438473
-8716,876,13480,-1545,28919,-2408,268438473
-9936,320,12388,-3171,28043,-2245,268438473
-10476,-284,10988,-3494,26927,-1613,268438473
-10916,-896,8796,-1469,25781,-1649,268438473
-12808,-1004,7928,1069,22109,-1114,268438473
-13204,-468,7472,1963,17951,-966,268438473
-13964,-204,7752,956,16487,-556,268438473
-14788,-228,7020,-788,13427,-564,268438473
-14236,88,6200,-1873,12492,-651,268438473
-13552,-644,4988,-2382,14024,144,268438473
-15052,-924,3524,-1758,11821,941,268438473
-16240,-696,3284,-639,11325,-25,268438473
-15972,-528,3036,-895,8898,-1226,268438473
-15488,-652,2224,-1292,7984,-1552,268438473
-15664,-540,1284,-1094,7743,-1439,268438473
-15540,-840,1032,-680,7068,-1139,268438473
-15604,-1136,1048,1,6813,-955,268438473
-15832,-796,708,498,6774,-1067,268438473
-15860,-808,512,590,7171,-1405,268438473
-15700,-972,504,183,8430,-1608,268438473
-15384,-860,-72,-499,8776,-1731,268438473
-15576,-1176,-1156,-357,7603,-1474,268438473
-15628,-1280,-1380,-180,6716,-897,268438473
-15768,-1232,-1800,-294,6267,-703,268438473
-15124,-1600,-1412,-525,5600,-377,268438473
-15848,-1644,-2296,-873,5174,-429,268438473
-15840,-1612,-3160,39,4584,-1338,268438473
-15768,-1528,-3696,670,3984,-1478,268438473
-15548,-1664,-3668,1689,3214,-1784,268438473
-15656,-1400,-3348,1857,2431,-1613,268438473
-15320,-1744,-2800,999,1012,-1296,268438473
-15360,-1772,-3352,75,-1660,-529,268438473
-15344,-1912,-3040,-793,-4328,388,268438473
-15616,-2120,-2988,-1386,-7200,576,268438473
-15972,-1844,-2992,-2022,-10843,1159,268438473
-15920,-1812,-2180,-2569,-16671,2409,268438473
-15752,-1636,-960,-2612,-21164,2706,268438473
-15952,-1456,164,-2710,-25078,2952,268438473
-15712,-984,1724,-2980,-30029,3215,268438473
-14456,-1076,3896,-3315,-32768,3064,268438473
-13704,-1616,5356,-3806,-32768,2615,268438473
-13412,-1372,7016,-2831,-32768,2707,268438473
-13020,-776,8308,-1049,-32768,2579,268438473
-11720,-1120,9416,1153,-32768,2425,268438473
-9788,-944,10508,2932,-32768,2355,268438473
-8016,-244,12680,5154,-32768,2514,268438473
-6872,188,14156,5958,-32768,2295,268438473
-5080,264,14860,4777,-32619,2775,268438473
-3136,444,15136,2412,-32768,2854,268438473
-1548,668,16852,2637,-31503,1451,268438473
-96,1716,16888,1171,-27945,1166,268438473
928,992,16084,916,-25661,709,268438473
2700,812,16088,1456,-24158,-369,268438473
4228,1104,15824,2012,-23307,-1046,268438473
5228,1384,15652,1122,-23797,-1049,268438473
6172,1540,14588,234,-26462,-702,268438473
8008,1712,14192,-157,-29821,230,268438473
9260,1484,12848,51,-31398,735,268438473
10192,1804,11784,1150,-31397,999,268438473
11604,1188,11112,1920,-29104,808,268438473
13280,1188,10548,1784,-26873,261,268438473
13940,1196,9240,1344,-23773,21,268438473
14888,1640,8688,904,-20897,-116,268438473
15076,1216,7620,173,-19285,637,268438473
15208,1212,6860,-367,-17859,1009,268438473
14868,836,5968,-935,-16878,1806,268438473
15832,1472,4508,-926,-18094,2833,268438473
16348,1444,3040,-514,-19574,2718,268438473
17352,1240,3076,122,-18411,708,268438473
17852,1024,2152,325,-13188,-468,268438473
17144,924,1124,-176,-12619,743,268438473
16032,432,320,-900,-13787,449,268438473
16268,480,-128,-821,-13253,-1506,268438473
17048,624,-984,-788,-11811,-2342,268438473
16896,1616,-1884,-1677,-11968,-2045,268438473
16576,1448,-2204,-1792,-11899,-1356,268438473
16972,1336,-2588,-2155,-8591,-1686,268438473
17412,1260,-3012,-2713,-4402,-1362,268438473
17124,1360,-3504,-1888,-158,-858,268438473
17472,1300,-3732,-881,5091,-188,268438473
17488,1488,-3384,251,9364,484,268438473
17516,1440,-2228,1234,12576,1217,268438473
16868,1148,-696,1726,14074,2005,268438473
16948,1180,-236,1451,16078,2589,268438473
16988,884,576,854,18865,2621,268438473
16280,476,1664,720,20296,2311,268438473
16096,956,3068,493,20744,1257,268438473
15808,1000,4000,-451,18277,570,268438473
15408,568,5204,-1296,16919,-35,268438473
15428,716,5712,-1743,15847,-962,268438473
15604,860,6016,-1845,15727,-1762,268438473
15616,1856,6700,-1465,16028,-3207,268438473
14584,900,7636,-736,18226,-4244,268438473
13924,724,9040,-238,21365,-3318,268438473
13660,1168,10900,-205,25961,-1421,268438473
12796,1224,11524,-842,30083,-366,268438473
11424,1300,12300,-1200,32767,98,268438473
9536,1576,13404,-1052,32767,220,268438473
7804,1836,14040,-675,32767,-162,268438473
5928,2024,15332,-909,32767,412,268438473
4228,1896,15820,-1772,32767,2344,268438473
2560,1244,15204,-4302,31487,3292,268438473
756,856,15516,-5057,28806,3004,268438473
-552,844,16200,-3480,29140,1977,268438473
-1780,176,16224,-2334,29183,1208,268438473
-3504,-236,15628,-241,29388,-83,268438473
-5200,-164,14364,1809,26704,-771,268438473
-6844,52,14256,2464,19349,-721,268438473
-7948,296,14212,1839,13411,-1110,268438473
-9104,336,13992,367,8371,-915,268438473
-8868,576,14236,-677,6105,-392,268438473
-8592,464,13732,-952,7319,548,268438473
-9256,-28,12620,517,9939,-40,268438473
-8856,352,12304,2276,15987,-1810,268438473
-9832,340,12088,3372,20667,-2791,268438473
-10588,96,11468,3188,20541,-3179,268438473
-11304,264,10552,2344,17616,-2726,268438473
-11936,412,9156,1362,15104,-2139,268438473
-12760,776,8540,1128,13980,-1679,268438473
-12596,236,8100,1398,13902,-1979,268438473
-12896,480,7564,2130,14671,-1669,268438473
-14264,352,6848,2106,15773,-1380,268438473
-14444,816,6836,1812,15657,-1893,268438473
-14536,96,5704,868,14896,-2308,268438473
-14124,-60,5068,916,16442,-2369,268438473
-14560,108,3652,1298,16769,-2183,268438473
-15484,-152,2340,802,14909,-1531,268438473
-15304,-420,2208,525,10907,-366,268438473
-15984,80,1872,403,10026,673,268438473
-15260,-864,1440,-743,6867,1373,268438473
-16208,-940,408,-1563,2661,1140,268438473
-16160,-144,488,-293,2412,-605,268438473
-15400,524,636,463,4810,-1623,268438473
-15800,72,320,693,6210,-1506,268438473
-16128,164,456,675,6659,-1895,268438473
-16300,-8,-996,-137,5155,-2185,268438473
-15736,-636,-1288,-397,2503,-1942,268438473
-15788,-928,-1716,-489,-565,-977,268438473
-15708,-1104,-1480,-579,-4040,45,268438473
-16204,-808,-1372,-585,-8582,1166,268438473
-16772,-612,-116,-632,-12707,856,268438473
-16188,-568,928,-1195,-17559,316,268438473
-15536,-248,1848,-2065,-20649,444,268438473
-14660,164,3376,-3018,-22369,720,268438473
-14844,-248,4496,-4398,-24993,1040,268438473
-14888,-548,5676,-5125,-28821,1342,268438473
-13748,-836,7024,-4020,-27848,1503,268438473
-12776,-1184,7864,-3271,-28375,1567,268438473
-12236,-984,9264,-3034,-29982,1834,268438473
-11328,-396,10508,-2522,-31148,2169,268438473
-9332,-760,11420,-1927,-31644,2252,268438473
-7852,-1324,12044,304,-31668,2401,268438473
-6656,-712,12892,3283,-32768,1717,268438473
-4704,-380,13796,4898,-32768,1222,268438473
-2824,64,15180,5902,-32768,689,268438473
-1600,444,15880,6033,-32146,76,268438473
4,1076,15976,5108,-29667,-444,268438473
1776,1320,16260,3530,-28684,-1192,268438473
3136,1508,15728,2439,-28577,-1880,268438473
4744,1624,15704,1427,-29305,-1611,268438473
6056,1648,15116,864,-30102,-717,268438473
7540,1724,14708,625,-30115,-222,268438473
8676,1908,13932,658,-29647,-392,268438473
10456,1844,13036,1532,-28200,-549,268438473
11888,2200,12320,2064,-26406,-87,268438473
12944,1628,12008,1159,-21333,1527,268438473
13544,1980,11236,-366,-17867,2552,268438473
13736,1208,9404,-934,-18604,3255,268438473
13876,824,8208,60,-16774,3601,268438473
14448,564,7684,794,-14993,3252,268438473
14700,744,6996,1362,-13747,3247,268438473
14692,1020,6564,1921,-14743,3391,268438473
15116,624,6008,2218,-15273,2963,268438473
15488,520,4984,1993,-16526,2221,268438473
15772,1044,4200,2010,-17532,1383,268438473
18440,232,4264,2412,-13257,-286,268438473
18256,788,3300,1391,-9344,692,268438473
15944,936,2580,-453,-13270,3191,268438473
15192,360,1440,-1015,-17951,3241,268438473
15836,432,600,-1802,-20899,1349,268438473
16032,856,-228,-2924,-23408,-131,268438473
16512,348,620,-3111,-24248,-937,268438473
17116,-152,-3076,-5700,-15336,-1703,268438473
17036,712,-4236,-7244,-11671,-1926,268438473
16636,92,-5272,-6735,-6836,-976,268438473
17156,352,-6116,-4365,-199,-655,268438473
17660,636,-6132,-1550,5522,-61,268438473
17056,732,-5572,1204,9677,633,268438473
17040,444,-4216,2645,11465,1069,268438473
16724,648,-2716,3256,12055,1109,268438473
16964,656,-1692,2748,12587,1084,268438473
16664,856,-1464,1537,11618,1632,268438473
16684,392,-772,488,13194,1248,268438473
16744,100,-160,-137,15771,474,268438473
16924,284,284,423,18582,272,268438473
16844,-104,1300,1502,21880,356,268438473
16592,-464,2652,3468,27705,960,268438473
15752,-152,4008,5026,29571,1874,268438473
14436,816,6284,5208,24961,2021,268438473
13768,1072,8920,2113,19446,269,268438473
14196,676,9840,-2626,20128,-2660,268438473
14276,900,9804,-4626,21758,-2070,268438473
13400,636,10128,-4890,21639,-463,268438473
12820,64,10804,-4129,21704,-745,268438473
12032,-124,11840,-2038,23054,-420,268438473
10468,-300,12428,-126,25848,53,268438473
8640,-140,13100,1068,26502,-369,268438473
7568,40,14124,1301,25621,-1184,268438473
6188,604,14976,1287,25211,-2355,268438473
5252,588,15568,1293,24342,-3187,268438473
3812,832,15692,1329,25196,-3620,268438473
2804,600,16096,1352,24492,-3922,268438473
1420,836,16340,978,23881,-3476,268438473
556,896,16336,46,21803,-2449,268438473
-392,848,16492,-935,21229,-1711,268438473
-1488,612,16600,-700,21901,-1255,268438473
-2876,484,15184,1661,22212,-1296,268438473
-4180,536,14724,2565,20523,-699,268438473
-5436,1024,15344,1547,17709,-825,268438473
-5836,1556,15008,-136,16168,-609,268438473
-6856,1036,14212,-967,16188,194,268438473
-7612,1072,13264,-977,16880,452,268438473
-7808,580,13156,-71,16726,1084,268438473
-8604,628,13108,380,16486,1245,268438473
-9728,732,12648,384,17918,818,268438473
-10856,956,12232,553,18522,890,268438473
-11688,1008,12184,207,16558,898,268438473
-11948,1044,11448,-772,17563,59,268438473
-12236,1020,9096,-1365,20321,-789,268438473
-12944,260,7240,-133,20054,-592,268438473
-13144,600,7068,518,19029,187,268438473
-14140,1032,6744,200,19008,866,268438473
-15272,772,6292,-35,15845,478,268438473
-15192,548,5228,-118,9703,-472,268438473
-14628,688,4416,-707,8926,-1391,268438473
-14748,608,3620,-554,9196,-2138,268438473
-14292,600,2932,-220,9383,-2404,268438473
-14832,504,2152,231,9039,-1662,268438473
-15640,260,1944,390,6728,-989,268438473
-15524,364,2084,717,6434,-1046,268438473
-15880,416,2200,795,6178,-1266,268438473
-16336,368,1428,-105,3342,-1206,268438473
-16024,36,1284,-317,585,-1338,268438473
-15548,-52,1412,-777,-2010,-632,268438473
-15984,-24,1204,-1297,-6175,255,268438473
-15888,-444,1904,-2135,-11668,1097,268438473
-15612,-596,2976,-2839,-18175,1702,268438473
-15284,156,3952,-3218,-24018,1973,268438473
-14080,284,5320,-3779,-26567,2335,268438473
-13320,364,6284,-3520,-26557,2897,268438473
-13272,356,7508,-2632,-26096,3074,268438473
-12424,-68,8872,-2039,-26548,2975,268438473
-11468,600,9948,-1698,-26063,3081,268438473
-10968,840,11132,-1933,-25244,3016,268438473
-10464,900,12124,-1638,-24512,2426,268438473
-8816,452,13272,-1813,-25029,1763,268438473
-7200,308,13420,-1357,-25401,1380,268438473
-6476,384,14008,-297,-25929,1128,268438473
-5036,520,14524,1408,-26742,1022,268438473
-3636,592,14984,2436,-25343,480,268438473
-2360,688,16032,2271,-24229,-129,268438473
-992,1072,16192,1704,-24743,-499,268438473
432,1484,15984,924,-25113,206,268438473
1888,1268,16048,879,-25125,988,268438473
2944,1500,16348,490,-25126,1163,268438473
4076,1816,15976,-330,-23811,1598,268438473
5264,1540,15960,-720,-21854,1616,268438473
6060,1068,15488,-1224,-21757,1008,268438473
7636,1040,14576,-1572,-21780,-15,268438473
8380,1192,13420,-1564,-21309,-91,268438473
8908,1052,13324,-1617,-21806,533,268438473
9992,928,12232,-1973,-23999,62,268438473
11464,852,11388,-2375,-24962,-438,268438473
12464,956,10520,-2566,-26218,-257,268438473
13360,852,9408,-2374,-26150,28,268438473
14268,556,8328,-1660,-25604,44,268438473
14840,336,6884,-860,-25311,-320,268438473
15432,456,6068,-99,-24572,-613,268438473
16036,524,4740,588,-23091,-568,268438473
16828,500,3852,741,-20803,-158,268438473
16880,212,3068,669,-17276,-688,268438473
17008,400,1840,744,-14220,-1023,268438473
17440,156,1932,436,-11018,-153,268438473
16992,508,1104,-40,-9999,281,268438473
16996,696,512,-193,-10650,269,268438473
16752,748,-328,-203,-11566,526,268438473
16384,864,-944,-183,-13279,389,268438473
16580,1920,116,618,-14686,585,268438473
17236,-136,-1968,-1050,-9014,894,268438473
16940,176,-2628,-2121,-3416,-188,268438473
17148,360,-3132,-1650,138,-552,268438473
17724,212,-3416,-469,4430,20,268438473
18012,568,-3020,443,9289,214,268438473
17716,464,-1952,920,13951,315,268438473
17204,220,-920,873,17691,568,268438473
16908,120,404,732,20999,844,268438473
16988,-148,1460,816,25695,557,268438473
16432,-248,2488,1605,31726,-89,268438473
15652,76,4360,3029,32767,-390,268438473
14772,652,6756,2771,32767,-820,268438473
14060,1080,8372,1069,32528,-2058,268438473
13560,1000,9564,535,32010,-2602,268438473
12472,1180,10728,638,32057,-2156,268438473
10812,1168,12016,-161,30304,-1517,268438473
9468,1084,13212,-1315,27812,-1400,268438473
8220,972,14248,-2160,26629,-1460,268438473
7556,1176,14852,-2026,26406,-1498,268438473
6492,1284,15272,-639,27957,-302,268438473
5436,972,15924,18,28732,845,268438473
3360,980,16084,-585,28050,1090,268438473
1628,564,15752,794,25384,169,268438473
420,604,15208,3128,20424,30,268438473
-1280,980,16204,2980,14640,-204,268438473
-1780,1220,16588,737,7205,-783,268438473
-1420,1404,16308,-755,2270,-903,268438473
-1408,1092,15864,-914,1081,-1066,268438473
-1684,1244,15836,-338,2312,-1346,268438473
-1764,732,15932,126,5182,-2191,268438473
-1672,988,16172,258,8299,-2512,268438473
-2264,1224,16324,576,12957,-2282,268438473
-3188,1328,16048,94,14653,-1640,268438473
-3760,1084,15344,-366,15144,-780,268438473
-4696,832,14840,302,16009,131,268438473
-5860,904,14464,1260,17561,109,268438473
-7072,956,14516,1749,19327,-1047,268438473
-7668,1088,14356,1583,20873,-2051,268438473
-8516,1236,13624,690,20189,-2385,268438473
-9656,1516,12736,-375,19461,-2408,268438473
-10380,1328,11252,-1014,19042,-2336,268438473
-10376,788,10836,-848,19307,-2203,268438473
-10912,368,10444,-335,20983,-1746,268438473
-12156,652,9728,-665,22301,-1401,268438473
-12804,436,8544,-1403,20378,-928,268438473
-13444,508,7396,-2304,18620,117,268438473
-13680,-16,6592,-2839,14668,1153,268438473
-13992,364,5876,-2848,14970,1244,268438473
-15144,1080,4588,-2723,16915,873,268438473
-15036,604,3564,-2966,15608,972,268438473
-15408,568,2848,-2426,14653,1482,268438473
-15540,316,2192,-2151,12607,1632,268438473
-15672,436,1664,-1506,11738,1017,268438473
-15924,536,924,-914,10118,360,268438473
-15892,364,208,-819,7171,23,268438473
-15828,484,44,-402,5527,-215,268438473
-15800,488,-356,-181,2815,-294,268438473
-15876,300,-484,18,1916,-485,268438473
-15620,340,-680,91,-373,-387,268438473
-15692,540,-364,112,-1973,30,268438473
-15812,376,-256,-300,-4713,530,268438473
-15868,412,228,-199,-7474,754,268438473
-16140,572,996,-159,-10192,1011,268438473
-16300,340,1704,-486,-12917,796,268438473
-16032,1040,2252,-873,-15495,321,268438473
-15096,848,3060,-1441,-15804,79,268438473
-14916,548,3456,-1209,-15049,-162,268438473
-15228,504,4148,-619,-17035,-609,268438473
-14164,-84,5424,-136,-18557,-1105,268438473
-13132,324,6644,-297,-19614,-831,268438473
-13156,376,7560,-754,-21662,468,268438473
-12896,404,8664,-1085,-24197,1201,268438473
-11920,-40,9584,-1067,-23851,1067,268438473
-11396,536,10688,-1374,-24870,1166,268438473
-10492,756,11860,-869,-24530,827,268438473
-9612,1024,12624,-59,-22658,727,268438473
-8808,612,13160,-156,-23995,416,268438473
-7428,428,14104,-1364,-28060,-451,268438473
-5412,304,15032,-1494,-27641,-1171,268438473
-3780,972,15228,-1617,-26268,-675,268438473
-3188,624,15312,-1240,-24893,274,268438473
-1776,56,15428,-677,-25715,290,268438473
-40,-412,15608,-765,-27578,477,268438473
1612,-56,15408,-73,-28169,971,268438473
3076,220,15404,930,-29505,1613,268438473
4272,448,15472,1618,-30254,1564,268438473
5980,840,15580,1443,-30739,704,268438473
7288,784,15164,641,-29361,314,268438473
8360,936,14824,-705,-29607,18,268438473
9584,660,13416,-2024,-29643,-168,268438473
10992,328,11940,-2332,-30103,369,268438473
12148,396,10836,-2497,-32255,1067,268438473
13300,316,9468,-2682,-32768,1114,268438473
14420,-272,8308,-1746,-30421,897,268438473
15492,-216,6732,-664,-26435,265,268438473
16028,-28,5172,262,-24228,-11,268438473
16572,-372,4224,1430,-20024,-13,268438473
17092,-404,3496,2014,-15824,-349,268438473
17124,-316,2984,1973,-13153,-379,268438473
16792,-56,2052,1914,-13306,358,268438473
16128,-216,900,2073,-15660,1243,268438473
16416,-204,28,2758,-16470,1023,268438473
16404,-140,-972,3763,-13965,-121,268438473
17368,208,-372,3523,-10155,-278,268438473
17180,-408,44,1130,-5130,-259,268438473
16944,-96,-804,-1653,-2701,-613,268438473
17156,-140,-1772,-2169,-1387,-832,268438473
17112,52,-2456,-1228,-799,-535,268438473
17044,144,-2440,-155,-677,-72,268438473
17068,124,-1856,159,-359,26,268438473
17144,336,-1316,-560,2072,-57,268438473
17308,-84,-944,-1673,7455,-246,268438473
17432,-244,-608,-3302,13941,-940,268438473
17320,-112,156,-4835,20348,-2026,268438473
16876,-124,1412,-5586,25100,-2681,268438473
16368,-176,2632,-5860,29202,-3959,268438473
15976,56,3664,-5296,30794,-5509,268438473
15652,836,5164,-3693,29001,-5273,268438473
15492,1452,6808,-1556,26780,-2967,268438473
14276,912,8740,-1272,23939,-1223,268438473
13180,1108,10120,-2376,22364,-462,268438473
12676,836,10860,-4204,21031,-547,268438473
12296,468,11208,-4066,23760,-509,268438473
11904,352,11976,-2367,27696,-727,268438473
10668,588,12932,-608,30646,-635,268438473
8912,620,13916,1004,31651,189,268438473
6848,876,14612,2629,31266,139,268438473
4940,1224,15468,2775,28594,-68,268438473
3848,1164,16112,1798,26801,47,268438473
2244,1204,16092,1154,25362,48,268438473
932,1024,16020,644,22579,-486,268438473
52,1192,15912,409,20021,-698,268438473
-1244,1088,15728,77,17693,-711,268438473
-1800,856,15800,66,14874,-694,268438473
-2596,924,15676,117,14509,-837,268438473
-3820,1080,15288,750,15730,-1156,268438473
-4904,1320,15220,1620,17974,-1674,268438473
-5760,1428,15508,1657,20661,-2441,268438473
-6704,1316,15020,1051,22461,-3177,268438473
-7264,1184,14312,161,22399,-3107,268438473
-8344,1168,13512,-443,20779,-2510,268438473
-8936,1004,12932,-924,19680,-1715,268438473
-9856,872,12020,-1242,21052,-1097,268438473
-10796,640,11196,-1759,22053,-624,268438473
-12144,212,10264,-1700,20219,-516,268438473
-12560,216,9536,-1800,17992,-1090,268438473
-13532,708,8440,-1937,17852,-1408,268438473
-13936,280,6792,-2179,16923,-1968,268438473
-13384,224,6692,-2340,17814,-2482,268438473
-13672,72,6176,-2356,18189,-1608,268438473
-14536,-496,5208,-2166,15418,-572,268438473
-14528,-772,4204,-1964,13186,-29,268438473
-14444,-352,3588,-1768,14497,-32,268438473
-15132,-280,2344,-1850,14685,505,268438473
-15800,-500,1432,-1965,14132,317,268438473
-16040,-352,244,-1533,12286,-20,268438473
-16128,-764,-252,-454,9723,-486,268438473
-16080,-388,-532,572,6826,-1099,268438473
-15528,-496,-660,609,3879,-1070,268438473
-15160,-628,-440,421,2606,-671,268438473
-15576,-288,-472,-85,2236,-353,268438473
-15936,-644,-640,-578,792,215,268438473
-15784,-384,-656,-486,-88,491,268438473
-15676,-196,-868,-249,679,572,268438473
-16168,-524,-1132,41,697,796,268438473
-16220,-256,-1104,272,-110,712,268438473
-16352,-264,-808,5,-949,277,268438473
-15864,-416,-984,-285,-2284,-168,268438473
-15916,-640,-768,-412,-4837,-98,268438473
-15744,-1172,-228,-596,-9663,68,268438473
-16104,-804,376,-1430,-16706,632,268438473
-15808,-120,1400,-1892,-22456,1127,268438473
-15304,-324,2448,-2214,-24905,1716,268438473
-15168,268,3352,-2026,-25393,2211,268438473
-14720,-332,5024,-1663,-26100,2114,268438473
-13924,244,6436,-787,-26050,2301,268438473
-13572,196,8032,30,-25221,2378,268438473
-12792,-60,9440,-144,-26245,1865,268438473
-11380,-620,10484,-1798,-28903,1337,268438473
-10212,136,11460,-2723,-31675,1486,268438473
-8560,108,12244,-2545,-32678,1868,268438473
-7132,-364,12452,-1945,-32768,2376,268438473
-5588,-712,12248,-392,-32768,2406,268438473
-3232,428,13368,1475,-32768,2139,268438473
-1856,1272,15156,3192,-32768,1283,268438473
-732,1448,16344,3518,-30828,426,268438473
1096,1656,17228,2572,-28363,66,268438473
3540,1280,17604,190,-26150,174,268438473
4880,1304,17112,-1671,-22026,924,268438473
5356,696,16056,-2372,-17658,970,268438473
5920,304,15240,-1732,-14378,185,268438473
6920,384,14324,-791,-15357,-141,268438473
7704,372,14456,-791,-18152,15,268438473
8416,792,14240,-1452,-22505,508,268438473
9396,800,13404,-1977,-25216,1445,268438473
10296,380,12232,-1981,-26963,1821,268438473
11960,276,11076,-1226,-27509,1803,268438473
12868,436,10192,180,-27260,1266,268438473
13868,-76,9152,869,-26943,1017,268438473
14624,-48,8432,1135,-26077,779,268438473
15336,-64,7516,1368,-23649,556,268438473
15928,60,6296,1409,-20855,331,268438473
16484,-100,4700,1877,-19769,330,268438473
16908,-120,3904,2610,-19006,876,268438473
16940,-220,3164,2636,-18285,1660,268438473
16488,-236,2232,2418,-17939,1923,268438473
16440,-360,636,2530,-19496,2142,268438473
16292,-236,-300,3278,-19043,1657,268438473
16100,-288,-924,4717,-15630,-584,268438473
17336,-124,-340,3677,-13227,-962,268438473
17272,12,-916,493,-12334,-1002,268438473
16412,428,-1044,-3598,-13159,-1367,268438473
16164,100,-3152,-5515,-10435,-1673,268438473
16944,184,-4408,-4290,-8291,-1537,268438473
16972,-196,-5400,-2665,-5272,-912,268438473
17412,4,-5544,-839,-2623,69,268438473
17204,216,-5348,173,988,132,268438473
17060,364,-4884,375,4697,-339,268438473
17436,48,-4240,-352,9278,-358,268438473
17168,204,-3652,-1420,13405,-50,268438473
16572,68,-2848,-1419,14525,323,268438473
16300,116,-2040,-733,15750,367,268438473
16604,188,-1228,-419,17459,-231,268438473
16732,200,-168,-885,18981,-934,268438473
16592,228,1152,-1567,21138,-1787,268438473
16440,528,2672,-2440,21471,-2677,268438473
16740,444,4048,-3412,24232,-3117,268438473
16384,812,5152,-4155,28028,-3706,268438473
15592,640,6428,-4378,30484,-3886,268438473
14964,716,7436,-3880,31807,-3100,268438473
14520,784,8984,-3048,32767,-2433,268438473
13464,748,10768,-1827,32767,-1612,268438473
11792,1248,12692,-515,32767,-1117,268438473
9584,1540,13580,438,32767,-1445,268438473
7576,1412,13508,659,32767,-1638,268438473
5676,1272,14320,749,31515,-1964,268438473
4124,1564,15764,1146,29911,-2155,268438473
3136,968,15520,846,27881,-1635,268438473
1308,1376,15548,618,22881,-1084,268438473
-12,1508,15528,1038,21636,-849,268438473
-1648,1428,16088,1196,22664,-1267,268438473
-2560,1284,16036,631,22630,-1736,268438473
-3056,1388,15856,-416,21365,-1279,268438473
-4108,1244,15272,-654,22361,249,268438473
-5656,1500,15120,-1016,23358,1120,268438473
-7188,1468,14476,-1819,24319,1234,268438473
-7808,1492,13420,-2387,25262,1027,268438473
-8880,1036,12640,-2176,25044,1115,268438473
-9852,572,11784,-1664,24656,726,268438473
-11008,704,10988,-1659,25635,511,268438473
-12328,788,10768,-2520,22684,-29,268438473
-13480,740,10224,-3602,19063,-458,268438473
-12596,1836,9120,-4420,13598,-1024,268438473
-11896,-660,7816,-4366,13000,-765,268438473
-11868,824,6668,-3898,14334,-55,268438473
-13332,312,4812,-4099,16144,1529,268438473
-15588,36,3588,-1472,16932,706,268438473
-15380,192,2876,807,19127,-1038,268438473
-16360,148,3136,2003,18085,-1108,268438473
-15152,68,3228,1449,14122,-1483,268438473
-15308,176,3204,706,12088,-1163,268438473
-15060,444,1796,-245,13634,-1315,268438473
-16168,260,-72,-1825,10664,-209,268438473
-16076,316,-688,-2171,6702,1005,268438473
-15328,-536,-904,-548,4714,1241,268438473
-15536,-140,-1424,1538,3838,1356,268438473
-15912,608,-1840,2191,365,2145,268438473
-15588,724,-772,1739,163,2288,268438473
-16060,356,36,315,20,2012,268438473
-16192,680,192,-1625,-1652,1065,268438473
-16336,1136,-492,-2990,-3225,628,268438473
-15896,980,-472,-3664,-5366,64,268438473
-16120,500,-296,-4189,-7168,-149,268438473
-15864,776,-136,-4367,-9307,-356,268438473
-16388,504,752,-4443,-11143,-236,268438473
-16024,716,1208,-4620,-12653,-525,268438473
-15340,564,1768,-4943,-14737,-219,268438473
-15616,296,2892,-5405,-17579,559,268438473
-14612,604,4208,-6337,-20225,1328,268438473
-13968,508,5124,-6266,-17552,1148,268438473
-14376,252,5088,-4146,-16034,858,268438473
-14664,1548,4752,-2376,-16766,-1700,268438473
-15524,240,4024,-3698,-32768,-3261,268438473
-11364,-20,7728,-3103,-32768,-5098,268438473
-8252,-44,10636,1557,-32768,-6219,268438473
-7684,76,12356,3650,-27349,-4999,268438473
-7768,-376,13804,3048,-26172,-3423,268438473
-6840,-384,15444,2321,-23153,-4323,268438473
-5180,-372,16532,1809,-15637,-3740,268438473
-5012,-624,16188,1466,-8072,-2160,268438473
-4860,-1324,16092,1299,-6282,-1354,268438473
-4444,-1256,15972,1756,-3637,-1190,268438473
-4576,-1012,15276,1454,-1777,-626,268438473
-5180,220,15036,1115,-3204,439,268438473
-5412,900,15268,1274,-2852,378,268438473
-4824,484,14932,1932,-2891,-1013,268438473
-3928,-340,14528,2571,-5313,-2078,268438473
-3172,-168,15212,2607,-8272,-2298,268438473
-2544,-216,15940,3053,-9461,-2228,268438473
-1744,520,16628,2540,-7915,-1829,268438473
-1736,436,17268,1512,-4784,-1318,268438473
-1896,512,17428,77,-2603,-920,268438473