ax,ay,az,gx,gy,gz
1108,-13424,1976,-18225,8288,2958
-3604,-14496,-15972,-1527,-1176,4447
-12236,-28484,-3412,22194,-25828,13718
6868,-9016,11464,-14473,8089,6585
-7096,-23420,3620,-24906,-6344,1674
652,-16096,-28024,-9101,-5233,11268
-10832,-30612,-4172,16781,-17308,1090
-7660,-17348,-1068,2447,-8263,-1498
-3208,-3524,384,-2378,11089,-5433
3160,-3992,4344,67,6532,-5073
3132,-13804,5088,4747,-17384,9183
1096,-14564,6456,841,-5187,3396
72,-2300,-2564,-1885,-7218,11077
36,-19324,-552,591,28363,3289
-11056,-18556,-3944,-2145,13754,-11987
1580,-23828,4632,3586,4942,668
3628,-13024,3264,-1522,-10649,106
1852,-3992,5852,-1382,-6595,6734
-2208,-16116,4992,5,28963,-8527
-1264,-28748,2316,-9306,-20382,-808
16084,-29456,8216,25284,10664,-3966
2680,364,8256,19540,-17548,-4456
13560,-11112,10016,7936,17437,-4891
6924,-2732,13392,-8114,-19461,3837
11952,-10484,19548,-15568,21954,2142
4852,-6872,8636,-13545,227,7248
296,-23076,-5104,-32143,-10028,-2066
4028,-5540,3872,9772,-11141,-12777
15384,-14008,9344,6739,13070,-6124
9656,-5000,6960,-6324,-11930,4516
10132,-10300,16284,-9913,19647,4254
5492,-13208,11240,-3907,-16253,17839
6424,-10900,8544,-12856,15462,-948
-6828,-24764,-17308,-7628,1398,5728
-11984,-22896,-7672,8488,-21861,7236
-14996,-27232,-8992,230,5257,2101
-3432,-9664,2112,3425,25353,-9132
1696,-1676,3576,1426,-13083,-4504
1264,-21628,6024,12296,13858,-3041
3080,-12212,5844,-29994,861,6575
-9540,-24640,-3872,6535,-9778,5588
-8632,-23280,5688,-6869,40,-747
-5168,-9524,704,-8206,23592,-7697
180,-1360,4088,-3475,8889,-8837
7916,-15620,14736,2614,-1815,8271
1544,-9792,-552,-1893,-4063,12187
-6900,-1884,-2412,-2058,-10519,6864
-14988,-24768,-12084,-5256,12599,-6357
-7756,-17612,-2872,6832,-2549,-8198
3128,-16940,-9296,16522,4841,-16268
400,-12296,3784,11313,-12714,-9492
-2164,-112,1340,-7436,-8246,9571
-9920,-15828,-16020,-23053,15189,16529
-8412,-13208,-12316,889,-6631,-26233
-412,-14084,-10640,13467,-5533,-17786
7488,-7104,2844,20779,10953,-20143
10936,-14356,13880,8565,-7485,-4126
12436,-3780,13588,3897,5051,-1366
10528,-12072,16812,-7997,6889,4829
7004,-9096,11324,-16276,1735,6647
-3712,-21460,-5364,-30980,1964,12661
-4660,-13476,-32768,-12048,-4164,-76
-11860,-29196,-12212,27172,-32768,15806
10504,-10948,10080,-15787,43,11910
-2620,-19320,-3404,-13790,-9871,6251
-1508,-17752,-8440,-11311,5378,10237
-5576,-19360,-284,11032,-4407,12874
-11496,-27772,1448,9166,3669,-4985
-6984,-9900,116,853,30661,-4853
4084,-2608,6884,2592,10077,-13313
2084,-19040,9304,-976,-7749,-811
2060,-12956,1536,-1184,-19002,5475
1844,-16164,1960,-3166,-3372,13202
-1108,-5908,-428,-8596,-9892,13460
-5260,-11544,-1964,-9490,23387,11941
-12932,-18360,-7768,-3300,5835,-16867
2452,-10616,6232,4071,398,-10547
172,-14024,1168,903,-14580,10696
-1816,5720,1808,-6110,-3439,6051
-15852,-19828,-584,-1010,22900,3031
-12072,-19376,-8896,1673,-4844,-16181
-612,-17728,8804,24489,14857,-12563
5776,-10124,8948,16793,15476,-11646
11152,-15532,13172,8471,-10047,-5992
10424,-8272,16140,-364,-3781,794
10236,-9564,16740,-8986,-2604,4281
13124,-4624,8200,-22580,-12301,4640
-13064,-21060,-11764,-21319,-17552,18872
10536,-3848,16300,3014,1153,-3017
11912,-12184,10896,-15303,-25,13581
4744,-9532,7044,-15348,-4475,8123
1484,-25920,-5784,-28272,-8401,151
-8004,-22744,-7932,-162,-10165,4510
-7200,-25532,-5100,7018,-7127,-7654
-576,-16564,-3916,4945,-4221,-312
-3588,-5752,1784,2154,14736,-5990
3568,-7368,2228,1233,13816,-2164
2132,-14992,12620,-2272,-10200,9869
3876,-6364,7616,-3900,-8679,11819
-10960,-8896,-10728,-8706,-10145,1521
3976,-17760,3728,-7100,10444,-6639
1172,-12132,3984,5076,-13196,13095
-8676,-2276,-2536,-7396,-16406,15226
-8512,-19520,3832,-14447,11804,-5375
-12624,-32768,-32768,-13724,-19453,-27042
12972,-19504,-6248,13087,-14239,-10406
5248,-6348,3708,13337,-2924,-14221
17556,-10336,-936,139,-2798,-7705
15988,-6352,7280,-6660,7671,-393
14456,-2404,10244,-14822,16907,8040
6964,-6520,4828,-12355,-12181,16808
-3768,-19288,-7972,8693,-7937,14482
13732,-5876,11520,-5619,-5344,2936
9804,-12576,6516,-10345,3734,10445
8148,-7024,9412,-17655,-341,12611
-1024,-20500,-5056,-5440,6263,7593
-216,-17492,-7688,9401,-3509,-6276
-7732,-25368,304,6115,-6918,-2397
-1292,-17604,-5460,-3303,13123,-2958
1320,-6592,6808,-9732,10710,-973
2932,-7724,424,-2552,5529,-2977
3356,-15764,6100,5093,-7918,9919
552,-14016,3916,2758,-3583,6598
-4012,-2860,-2712,-5582,-12561,2990
5592,-7384,4588,-6097,18033,-5925
5128,-9088,3328,-1607,-10415,4183
3520,-6500,6516,2394,-8389,14830
-17288,-25944,1948,-12455,16189,2982
-14048,-18644,-16284,8846,3684,-26360
1204,-21740,10980,15206,11398,-14127
12864,-9128,9728,1349,-3506,-4945
12972,-2776,16084,6435,-6166,-4102
17104,-5552,6784,-8357,6451,4671
7884,-7764,9908,-19593,-15462,18527
-1504,-24020,504,-3018,31320,11545
-4260,-12432,-16140,1076,-1165,7434
14416,-8020,6440,-7869,9779,6818
8740,-8024,18016,-15490,-3531,8931
624,-12836,3456,-20415,-4558,8633
-1220,-19012,-3628,8788,14961,9145
-24924,-32768,-3344,32767,-15282,-21177
692,-10992,1740,-608,1743,-672
-2680,-7864,2768,-7853,16403,-2410
4012,-15204,6348,-6396,9079,-5054
-392,-13648,-1244,-2282,-16030,4215
2552,-2768,3128,-1798,-15635,13320
-14740,-19784,-6700,-6897,7892,3886
-3964,-25376,9108,-6055,6646,-8552
400,-16024,2412,5967,-31219,12525
1128,-8524,7208,813,4997,2719
-3716,-3060,-2360,-6301,-4706,10469
-12104,-20960,-3440,-14801,13610,13669
-13976,-19884,-32768,-17797,-13352,-10430
4808,-18560,-11448,22336,-7877,-18730
8272,-2324,1560,19998,1822,-17599
15164,-11436,6944,4952,-4796,-3058
15276,-8184,13100,-4104,-1749,-1142
18984,-8264,15752,-27962,2061,-3187
7316,-1708,-288,-4157,-7394,11528
444,-27832,-9132,-26381,-14521,19303
11928,3444,21144,5327,4349,-3888
13540,-9480,8224,-6763,4022,419
12084,-2868,15476,-13743,-9607,5093
5844,-9404,3292,-14748,2692,13122
3060,-16580,-10092,-28759,-6774,14051
-9456,-25116,-10456,11643,-22827,6751
-4460,-16352,1068,18561,-7057,-7929
-2068,-7044,916,137,32767,-8935
1988,-5436,6028,-6211,200,493
2684,-22364,13864,4913,-4503,2453
-232,-13140,1440,-3018,-14179,5953
-456,-10388,2724,-2779,-12694,10075
-1032,-22320,-3240,988,-23272,5223
-212,-11784,10516,-3852,9945,384
-360,-5428,2612,-6682,5871,-4106
948,-17312,5136,-1875,1611,-4587
-268,-12864,3212,2045,-23670,8651
5216,-11432,9732,-3365,-11213,9802
-5144,-2332,-5068,-17754,-1143,5394
-13612,-22036,-21568,-8848,4108,7487
-3084,-2200,-17336,11686,-11508,-7549
15300,-21272,-21808,7545,-9066,-10586
5920,2880,9152,20715,2166,-13958
21116,-12664,-6608,2731,-3874,-10139
-17172,-4012,-5728,-4813,2011,-2281
-15712,-29712,1672,-6723,2067,-7710
-3924,-20480,-9796,5540,-7283,-30475
3960,-6592,13004,20056,14766,-25339
14688,-7156,7496,9174,-24902,-2449
12448,-1588,12980,3003,4974,-9575
17468,-6096,4928,-2974,-7850,3868
14124,-4760,9716,-3218,10807,2687
11540,-5920,5820,-14806,1294,15037
9524,-16728,11180,-20042,-458,13514
-5796,-17012,-9132,6477,-5350,-4532
3540,-8360,32767,12307,23760,5766
10548,-4532,12336,-7118,-3876,11330
7468,-11360,4824,-21393,-3696,15559
-23080,-32768,-10800,-8836,-13820,9537
-5304,-21620,-3012,11675,-1730,-8183
324,-10112,-1164,13500,-1894,-5314
-2492,-13536,8200,-5026,32327,-7481
-232,-7672,-1700,-1266,-5166,2267
2248,-23236,11276,361,-4486,3188
2268,-11932,6740,-1154,-6128,4280
-636,-5204,-1044,-7935,-1690,13231
-16480,-6484,-5296,-10713,-5881,7649
-19172,-24848,-12700,-10869,1501,-19538
5768,-17200,11020,1445,5846,2742
0,-15200,188,-1935,-12703,9333
792,-4708,6164,-8863,-1741,12911
-11488,796,-6360,-10248,-5186,11391
-25936,-28320,-9576,-15516,7250,7009
-15476,-8496,-23876,-1699,-3328,-21670
-7076,-13940,-10052,14330,-1107,-23773
-2844,-27864,10280,14201,16488,-12216
12428,888,3432,4974,-3965,-8140
14968,-10916,15512,-2358,5954,-6141
10980,-6516,9292,-4024,3504,4513
11940,-2832,11132,-20175,4737,14504
16892,-28828,-5328,8539,-2472,-11036
7228,4864,4660,15456,-10173,-3456
12848,-9348,17764,6942,14765,-7035
12352,-2176,12824,-2915,-12593,1614
11480,-8220,10604,-10523,104,8337
6192,-10588,6644,-21719,-4159,12357
-1620,-12404,-3112,-18153,27154,11690
-4432,-13420,-9900,7032,-5714,15110
-9476,-22528,-832,22632,7114,-1725
-9144,-18792,56,-1267,-26161,11533
-5528,-5896,7340,-1200,32767,-17417
3344,-3604,-2104,-7882,9412,-11369
-2120,-24728,1720,-8562,-13340,16840
-4564,-20524,5524,15385,-117,-4124
-2176,-13088,-7024,-3434,32767,-12031
2096,-12636,5812,-7499,10455,458
2476,-8784,10560,-9067,27413,-5614
1804,-15616,1172,-6220,-7139,5056
2940,-16532,844,8574,-3512,2699
980,-12932,4852,1652,-16206,10303
-12248,632,-8308,-13502,635,6692
-7664,-23816,308,-12756,8485,4284
-5120,-14680,-32768,941,5184,-17476
5016,-17568,12040,3803,190,10920
3156,-14336,6360,-1256,3092,-1078
-7052,616,-5536,-5839,-17588,7970
-7184,-18564,10024,3004,32767,-12229
-11996,-28880,-10220,-21028,-16618,805
10620,-16812,-4272,19013,-4177,-17283
6120,224,4348,17782,-8771,-10775
17728,-16120,-4116,5007,-16231,-1222
15560,-8068,7204,-723,-11586,731
15812,-6852,388,-7250,1612,5860
12056,2380,8972,-3327,32767,1892
7952,-15688,1676,-13607,-26193,8396
15108,-19004,3644,11775,11730,-4699
11628,-2068,13096,-2269,-13566,-2486
13688,-10528,7240,-4472,10474,6211
12104,-7280,10820,-11529,-12944,5840
-1496,-12704,-18048,-7551,-299,19911
-10460,-26196,-7176,11200,-7051,6666
-10908,-32512,-9036,-413,12109,1429
-968,-9328,2832,-11871,7037,-2453
-3380,-8920,-2120,3652,32767,-15200
2884,-10632,4432,2671,-12689,5131
1980,-18460,3764,8195,-13242,6703
1012,-14660,-432,-12785,581,12588
-5860,-18032,-2216,21658,19017,22381
4824,-12956,16104,1556,7407,-10321
-1096,-5516,-2848,-12791,5992,1318
4744,-7792,8704,545,6779,-10293
4140,-13088,2952,6126,-10630,11750
1480,-17544,8048,207,6275,4201
1272,-3744,464,-5020,-9461,11705
-12968,-22648,-8904,-12529,21125,9432
-7008,-21104,-7964,-1852,-12751,-19544
412,-16192,-5612,12679,-17268,-32281
4816,-9264,5164,12297,51,-10948
14896,-9404,6108,8735,-4129,-6757
-3480,-12340,-4952,-8333,-26621,14927
-3032,-1752,788,-9228,-1384,13832
-11664,-21784,548,-12316,18889,6359
-23304,-4224,-9236,2201,16555,-31947
-524,-14572,-8452,14485,-5166,-22042
6664,-9760,13496,15757,11113,-20094
12584,-14300,4780,3875,-10302,-7132
11308,-4968,13968,-310,-3731,-4730
13796,-8252,10388,-1145,6847,1300
10936,-7568,7896,-11858,-6277,10206
6868,-15572,8124,-13416,12748,14643
-10724,-20164,1528,-3901,-817,14457
7724,-7252,56,4094,-20363,-4851
9768,-7496,19236,6904,13338,-14318
13748,-8224,4156,-4854,-7112,10797
11944,-6880,18016,-10676,6223,5526
7316,-8696,3256,-16590,-2193,15761
-7684,-13356,-4324,-20621,426,18579
-7248,-16804,-9904,4181,-4196,3796
-10132,-25784,-5968,8933,-9684,-13664
-5348,-17580,-3568,1283,-20274,-32
-2892,-8840,-1416,307,32767,-12960
1736,-2780,5336,-7053,9933,-3133
2188,-32768,2296,5130,6935,9887
-1648,-11148,-7876,-22204,8383,6630
-11032,-25772,-4020,855,1921,10966
-8548,-21044,2872,12530,-2364,-7911
-4748,-17808,-6248,-10958,810,2199
-1624,-4124,2812,-5216,5512,-5578
4372,-10260,6980,-5891,6726,-9934
-96,-11916,1188,2099,-13232,5465
-1304,-17908,6864,-1787,-14986,8249
480,-4840,-1540,-6748,-5411,11015
-15092,-8168,-4116,-12873,12593,10159
-18712,-22276,-8568,11973,18874,-15385
-3768,-18944,-11904,17575,-8231,-21459
9160,-3512,6228,5490,6210,-15065
5248,-10384,11856,-492,-5880,6499
1020,-12812,10640,-2491,1376,15355
-16768,3552,-4620,-16167,-31860,23843
-13484,-19428,-544,-4438,11680,-9386
-6160,-17348,-9660,14983,-6906,-17881
-4536,-31396,25312,12928,29761,-383
1412,-9416,6136,9398,-17904,-9287
15468,-6316,12284,4274,20875,-8210
12572,-5596,7136,-2088,-4229,2046
11476,-6056,13744,-10193,6455,6082
7500,-8656,20388,-16630,7333,5150
20184,-23324,15036,22134,12419,-10347
3676,392,5028,11509,-31828,2503
13772,-7764,9488,5049,20531,-8506
11988,-5552,11576,-3699,-10432,2027
11820,-6072,12288,-6642,8505,5415
9500,-13336,13316,-11455,-5587,16721
-32,4748,-13472,-21272,2756,21997
-17156,-32768,-4496,16040,-11816,-1368
-9200,-16348,5692,-10680,-21554,8723
-6592,-8160,-6560,-673,32767,-5197
-596,-5600,11228,-2773,30043,-6876
5760,-21152,4256,8498,-11706,10990
3016,-23584,-2476,-906,6748,4515
-2232,-22976,4304,-14029,22187,15727
-2152,-11848,-1596,11796,9332,10453
-432,2268,-120,1645,8228,-9453
-1128,-32768,20800,-3228,-455,-581
-856,-14840,1812,-2301,-6377,3910
-1248,-9176,472,-5265,-6960,13990
-6976,492,-2724,-12178,-2165,11769
-16796,-26248,-4796,4902,11885,-7914
-6160,-13292,-4572,8454,-10651,-13755
-1180,-17484,-2880,10345,-12713,-22503
13092,2300,22128,14920,11710,-17739
3704,-11500,1428,-550,-2642,11242
-11640,-5936,-5704,-19324,753,5472
-21420,-32768,-13840,-12489,-2397,12502
-13524,-6716,-9364,8078,-9562,-18183
-944,-20048,2184,18001,-13456,-23933
7608,1732,7984,11030,-13681,-20049
12148,-15580,7728,2515,-2625,-3144
11876,-5460,15268,-3394,4351,-2109
11788,-11608,9864,-9590,-1979,11360
6920,-19868,8944,-26094,12568,9857
-4332,-20500,-7812,-11418,-2944,11407
-11840,-28132,-7520,6440,-10425,7791
13208,-3516,15168,-2327,-7992,2587
12684,-8316,13884,-8918,10958,4829
6836,-6548,7140,-11917,-5586,14352
-736,-21716,4448,-32768,-3106,15333
-11144,-17676,-6588,2316,4090,14262
-13184,-20908,-5584,-499,-9045,-8949
-6432,-9848,-2516,-2149,-845,-5335
-4036,-4040,-1548,2465,17598,-9943
3396,-8204,8428,824,12568,-5123
2056,-19124,9100,5151,-15273,4113
-108,-16408,3980,-1032,4098,1601
-504,-3420,-2840,-7716,-3185,14075
-10324,-20480,9008,-4023,-14103,2553
-5364,-10172,-3248,-5039,25724,-5982
-840,-4464,2848,1060,9023,-9829
2616,-20404,13364,1954,1607,6058
1084,-12648,1760,943,-3093,6631
-7208,568,-4616,-7779,-10827,8093
-8920,-14060,2012,200,32767,381
-5888,-13968,-24652,-1895,3496,-31958
-12352,-21100,25900,9862,30461,-9539
6248,-16208,828,327,-27878,-10019
8096,-3108,18652,8899,27350,-12465
12604,-8568,7920,-3273,-10528,5462
6728,-14512,-6608,-6787,8401,-846
7268,-12448,-5984,5149,-4557,3991
6552,-14508,-5800,16548,-1197,3104
-9260,-14064,22488,-14428,4013,-6073
5760,-14468,-5776,-8721,-2835,823
6304,-14640,-3720,1012,-2372,1825
5512,-15224,-3908,11058,56,3472
2532,-13800,5736,15771,7949,6762
-5608,-11576,18580,12156,3195,7753
-9144,-19272,19032,-10102,4866,-1517
532,-13148,7896,-11967,-3596,-8810
-3268,-17564,5668,-5874,4738,-4269
348,-10476,7652,-2063,-14770,-2255
3032,-13316,-560,-3190,-6155,-1302
5128,-16336,-3024,-419,-2426,740
-5052,-20892,23664,114,23246,-5830
1744,-13072,11036,-15392,-9211,-6466
4700,-17280,6044,-6726,-2781,3333
836,-11416,2816,2793,796,3136
1764,-9200,1836,2772,-11070,1106
3500,-17940,1288,-3534,3226,2655
2420,-17168,-1804,-3805,2611,810
2544,-13760,3256,923,5321,991
-56,-9172,2148,6168,9732,1385
-6796,-7576,10236,13383,2315,1849
-1880,-22464,20108,-3483,11750,-11109
10484,-5844,-7396,-15852,3698,-7874
-7668,-14528,23132,-694,6700,-857
872,-16768,14712,-19237,-10002,-3516
2192,-19284,-2640,-19734,-3543,-1862
6820,-11888,-5084,-12204,-4862,-3553
5072,-14412,-5868,-3650,2345,1390
5120,-15948,-8828,4391,14,1118
4112,-12932,-4124,11688,5022,4797
3024,-14632,1228,16305,1716,4745
-17680,-25624,32767,13921,25684,8561
-7840,-19116,14484,-8698,7172,-7693
484,-12340,7316,-3011,-11090,-1787
-512,-7988,7016,-8759,3891,-6244
-10000,-18212,16328,-6587,-2906,2266
