ax,ay,az,gx,gy,gz
3996,-6464,20004,-5778,12500,-13971
5528,-6128,17476,3418,5740,-1885
2492,-8560,18204,8167,-4665,9504
4440,-3980,19072,4183,-8740,4706
864,-6108,18760,-8197,20071,-11390
4992,-8540,13656,-5418,-3283,-4814
3668,-6800,18340,2557,4052,978
4660,-7896,18932,13195,-4733,2902
4288,-2648,13396,7200,-4279,2597
5600,-12844,18212,-6631,32597,-4306
1236,-4272,10836,2810,-8675,326
4080,-7164,18304,-638,-5189,6702
3960,-6756,19032,1515,1684,1704
2544,-2772,17368,7466,-176,8432
6164,-13200,5300,-6550,14399,-8439
3028,-3888,17624,-3334,271,-4410
3812,-9124,16204,-781,-1822,1071
5840,-6964,17564,2614,4471,-1448
3092,-5428,16988,-365,113,3728
5376,-6076,12264,-9509,-10899,-3060
3632,-7488,21084,-4104,5472,-3391
3352,-8816,15868,3758,2259,428
4244,-7432,18736,10439,-4301,2113
7596,-4140,12220,2998,-6705,1966
3496,-5984,27000,-10354,10515,-7156
2976,-6068,16756,-1707,-97,-3898
2156,-7604,17292,7289,-4999,8978
4424,-5660,18504,6279,2022,1609
3960,-8856,16016,-2360,7780,-6096
3536,-3048,14292,-4943,-4210,-962
3704,-6508,17120,2247,578,5205
2568,-7676,17660,67,514,1514
3032,-7312,15216,-2432,2643,-2323
3080,-6524,16344,-944,-980,-1139
3532,-6348,16276,-233,333,392
3216,-6984,15228,-941,-714,-164
3700,-6832,15492,-2076,603,-998
3660,-6316,17136,-3407,-916,-364
4244,-8012,17080,-2399,-6206,1755
6324,-7692,9340,-919,-1704,2840
7464,-10040,12960,-1821,-3226,-875
8240,-9708,11844,-2452,-1645,-817
8208,-9432,12864,114,-1205,381
8152,-9512,11452,42,408,398
8564,-10400,12544,25,566,993
7804,-8692,12564,-640,2574,295
7424,-8864,13316,-120,904,474
7164,-8524,13376,-277,1533,430
7052,-8536,13844,-373,999,59
6848,-8708,13732,-377,782,143
6892,-8720,13852,-432,296,-35
6800,-8644,13828,-519,533,-51
6824,-8384,13924,-477,392,47
6712,-8584,13708,-428,389,45
6896,-8580,13916,-559,390,22
6876,-8412,13976,-510,480,-4
6692,-8536,13944,-669,422,36
6596,-8528,13828,-757,557,-18
6660,-8384,13768,-677,414,-72
6644,-8408,13712,-563,400,-16
6728,-8476,14024,-605,643,127
6448,-8660,13904,-678,-149,-57
6668,-8472,13896,-797,36,-190
7080,-8448,13772,-819,-227,-242
7264,-8564,13472,-767,260,-79
7452,-8644,13676,-597,267,31
6688,-8340,13408,-538,252,7
7124,-8596,14152,-741,889,173
6988,-8692,14208,-395,746,-236
6784,-8596,13296,-486,184,-95
7104,-8624,13920,-919,736,-124
7072,-8596,14212,-672,1179,70
7616,-8548,13932,-335,-1884,-107
7544,-8412,13724,-873,1543,-862
6632,-8648,13748,-656,545,48
6696,-8860,13428,-444,-187,559
6696,-8720,13888,-744,510,65
6760,-8688,13900,-696,684,138
6896,-8680,13316,-445,-531,1188
6748,-8676,14108,-330,54,-124
6248,-8448,14108,-705,-405,30
6988,-8772,13216,-1170,2231,-480
6456,-8704,14008,-395,-652,1028
6672,-8808,13340,-343,146,1376
6460,-9684,14816,-561,939,928
7156,-9068,13032,-994,-2334,-755
7104,-8812,12248,-1206,-875,-881
6764,-9128,13204,-684,614,-224
7328,-9188,13056,-729,1186,88
7376,-10132,13376,-924,1698,315
7596,-9204,12708,-159,-3369,-310
7432,-9172,12644,-513,846,-227
7680,-8780,12564,-301,-689,-23
8196,-8528,12504,-295,925,-1070
7408,-8388,12800,-657,2299,-89
7488,-8764,13088,-435,24,375
7284,-8764,13260,-689,-338,-30
7244,1864,14236,5504,435,-172
6020,3708,15120,6029,-867,1648
7176,1216,14900,4151,4026,18472
8716,-584,11340,-8884,16906,-8441
5428,-56,20052,-5416,3267,-12808
5304,1904,18524,559,1896,-1775
6632,720,15208,8116,679,2959
6992,5884,16560,6999,-591,5682
8420,-376,14544,1286,-6634,8213
9816,-48,17352,-6270,15142,-4847
7416,804,18984,-1855,2057,-9581
6776,3388,15228,1854,-4791,-1457
9380,1724,15272,1472,1760,969
8192,3364,14812,-1431,4104,1450
7036,3140,14916,458,2947,8223
8264,-1704,5152,-4925,-8275,6838
7468,-524,20452,-5023,2720,-7391
5872,1676,17632,-1378,1433,-8329
5692,3360,18636,446,-1110,1196
8068,1200,14752,1708,3471,1216
6488,3796,18076,1877,351,1126
5808,1976,18640,5279,3180,11834
7956,-588,5484,-11956,15587,-8233
5796,-1340,17872,-3518,1370,-6231
6312,-444,15296,-919,914,-1445
7368,-212,18460,5111,-5260,-480
8712,292,13992,4131,3103,-1008
6080,5696,19360,2106,4738,2861
8388,-780,22448,7187,-17147,11863
8836,-1856,25568,-5124,30861,-5852
5756,748,16676,1362,-3475,-7499
7928,1812,15976,-4798,-1828,-2837
7184,-1904,20452,-4123,2899,52
6784,916,17104,4039,3917,-1289
5096,3224,17340,7246,-1454,2786
6336,-6236,12560,-416,-10216,17447
6972,-10596,32767,-1672,21596,-1620
7256,-1068,12720,-2679,2554,-3901
6272,-1784,16600,1420,-501,-2309
6872,180,16756,2708,-2601,-1387
10052,1328,13364,2843,-2301,-2413
7944,2660,16736,-721,4385,236
5880,9348,18924,1371,-1966,14910
2736,-1656,-10344,-21414,10043,-206
4540,-3968,15272,-7388,1406,-9428
4740,-1164,19072,-1520,6810,-6406
4964,-720,17240,4816,2689,-164
3896,2712,18672,5970,-1832,6043
5600,-2976,13140,-703,-6172,3110
1172,-6096,22024,-15758,17404,-6044
1620,-5288,17392,-5128,2456,-1934
2004,-5692,14896,3521,618,1091
1932,-5132,17132,1660,-1925,6146
4192,-2356,19544,8005,-9323,11233
-1036,-11248,19236,-14752,28130,-1834
-1796,-10992,14044,-2826,-2435,-1227
-816,-7836,15676,6670,2564,497
-996,-3304,20412,11261,-3341,7092
2332,-11008,-4784,-20854,-13683,6906
2416,-5492,25588,-12376,5703,-4138
-360,-7816,14256,414,3609,-3807
1912,-7616,17452,8976,-3914,669
508,-3568,16772,9491,-4799,2418
2276,-2308,12500,-1887,-20692,7218
5708,-4552,29196,-13762,26108,-6862
124,-7472,16092,-9370,-4014,-4123
1276,-6500,20488,332,2,2640
3652,-9364,15072,6591,571,4740
3156,-5440,13816,6604,1574,742
2908,-3476,11344,-4350,-19607,4691
2444,-7976,28192,-13905,14428,-5624
2432,-9560,16556,-7214,-5344,-7565
3756,-8216,16348,138,4372,-1498
5532,-8056,17640,10674,407,4581
2620,-4852,14668,18853,5568,13477
3688,-7980,-3448,-12826,14080,-7919
3872,-6628,18272,-14041,-3691,-3694
3876,-7432,16776,-2306,3598,-3955
3424,-6848,15984,5658,192,362
2332,-6164,18320,9862,-3138,5276
5180,-2848,17332,8665,-6878,5729
3656,-5800,21100,-8957,22643,-7662
1628,-6856,17528,-5955,-7068,-3171
2768,-7044,18360,-1671,859,432
3688,-9336,15116,3446,-929,821
3616,-6644,14460,2353,-2067,694
4060,-4076,22136,9134,-1375,5532
4568,-8344,12652,-8294,25948,-10699
2712,-9140,16128,-2841,-13256,-2083
5748,-8804,16292,-2329,8910,-3481
5692,-8748,14100,1552,1782,-151
4984,-6780,16196,5005,-1202,1764
4880,-2932,16068,8480,3117,6426
6564,-12004,-1712,-17129,7573,6145
4692,-8948,17476,-3553,-20775,3209
4348,-9540,13848,-373,6612,-4702
3948,-7052,12980,960,-808,-1865
6296,-6960,19564,3160,3339,-583
3428,-3360,19280,9589,-5727,9669
5428,-8780,-2024,-18264,-10001,7619
6080,-6148,24844,-7240,-6742,367
4656,-8880,12700,-2727,2271,-3957
5348,-8108,14044,1874,-2578,830
6556,-6956,19432,6094,3020,-1968
4876,-4224,16504,10741,-2391,-655
4940,-2496,2760,-5408,-13453,8553
5268,-3324,25216,-9519,99,-4240
4752,-6388,15548,-6738,1060,-852
4312,-7696,16852,971,-2082,1115
4832,-4840,17240,6048,-670,2514
6704,-3928,19488,9804,-7558,5359
5520,-6556,17544,-9164,23533,-8521
2652,-7580,16172,-6831,-6115,-1854
4220,-9128,16840,-63,-1727,59
4904,-7432,14768,1228,540,-1017
3596,-3568,18364,10160,-2148,4908
6160,-7628,3828,-9251,-9044,3191
2648,-6692,24040,-12283,-388,3038
4656,-10232,15644,-1807,2995,-8451
4148,-7676,13272,1140,3290,-1332
4664,-6756,14852,-1480,1797,1080
-1052,-5684,15664,-1259,1696,14617
2800,-10380,13064,-6678,528,-353
4504,-12116,12728,1976,-1195,4368
-136,-11552,20456,2206,6110,-4347
3164,-10068,9148,-1098,-487,-7770
3400,-8716,14700,53,-834,-3302
2972,-9024,17976,9302,-759,687
4756,-1476,13452,6340,-21026,1572
3444,-7028,27268,-9680,25838,-8714
2176,-9016,15856,-6519,-8675,-4383
3556,-7828,17876,1101,-133,-1100
5176,-7788,17868,10033,3333,3132
4068,-3220,19252,12282,-7896,5117
5188,-6364,-19880,-15564,-12929,22032
2540,-4684,29836,-10411,14,-4809
3856,-6912,11632,-5195,-2730,-1901
4928,-6460,17816,34,-1412,2473
5316,-6808,16428,8104,-2819,3500
5332,-2412,18356,12411,-1637,10264
4252,-6084,13748,-7245,30843,-12247
2656,-4392,16036,-1801,-7786,-3837
4836,-5020,18556,-2042,1986,1277
6432,-7812,12176,-815,-3277,2656
5944,-5996,16968,944,2129,-681
3452,-2336,15656,5956,6813,9388
1752,-11948,-1416,-13807,21214,-2990
2616,-7392,18112,-5920,-7617,-1800
3856,-9528,14904,-2672,3956,-8456
4748,-7988,15020,1404,-1999,815
4156,-9112,14892,5013,5626,-45
4600,-6900,18336,10889,-5760,3208
3452,1964,12216,2352,-20440,1034
6324,-4296,32767,-8006,29331,-10758
3584,-4604,14416,-1084,-5357,-3491
4452,-3584,17296,697,-1542,2209
5568,-4652,16884,-757,3495,4177
4440,-4520,17060,1767,-726,2311
5312,-3940,15864,1590,-499,-2297
5244,-5384,14680,-6366,7192,-2705
3548,-5420,16820,-3278,-3716,-3372
5700,-5720,15340,-1424,-350,607
6440,-6080,15800,818,116,3050
5400,-3412,16256,7293,-4079,4510
6080,-1428,13696,-2061,-22379,12052
9440,-5780,30612,-8733,17985,-7358
3800,-6124,17104,-2115,-7297,-830
4352,-6416,18748,420,9,925
5132,-8224,15048,1215,1838,114
5860,-7352,16260,2099,3482,-2343
4168,-4124,16328,5592,-1151,2496
6012,-3420,10816,287,-4788,2469
4824,-4044,25688,-7782,3746,-2209
2812,-5584,13600,-3420,-2252,-3297
4588,-6280,18556,-1586,836,-415
4840,-6472,15108,-257,-835,170
5324,-5804,18148,1303,583,521
3584,-3156,19128,10892,239,14659
4540,-9776,-1200,-10869,8308,-3567
3936,-6032,19880,-8382,-3274,-3373
4180,-7448,14248,-3059,1133,-3501
4256,-6800,14972,1446,-4002,-1856
5112,-6136,15516,627,1090,510
3540,-5908,18440,4549,2887,7786
4564,-6248,14136,5343,-10885,3776
5872,-5688,14284,-8159,15087,-5340
3756,-7028,16412,-6512,-2551,-4510
4008,-8012,14928,-5473,2522,-1991
4488,-8540,16068,1201,715,-70
2916,-6780,18252,11039,-741,4846
6092,-3040,15152,9025,-25497,6604
9664,-4156,30352,-6024,32767,-13350
2616,-5508,15836,-2245,-8233,-2756
4320,-4548,19328,-1385,2254,-2813
4456,-5860,13188,-643,-3611,601
6468,-7312,17312,-2729,6480,697
4180,-5472,17852,7128,906,696
3516,-5364,10328,4486,-23088,9168
5212,-4036,24076,-8674,9290,-3102
4072,-4824,15456,-5286,-1303,-4970
4912,-6232,15724,-5290,-320,83
5916,-6540,15832,-1359,390,699
3556,-5216,17540,4250,2725,4471
2956,-4684,19976,12909,-5869,10624
3648,-5372,8704,-9202,17536,-6141
3208,-5552,18196,-2390,-4331,-3144
3464,-5116,16720,-1433,-196,-3531
4348,-5532,16336,-1688,-2907,49
5880,-6340,14116,-2864,2385,1650
3904,-6504,18348,998,1971,1463
4100,-7052,19432,11288,-7800,6306
4228,-6268,21380,-7271,13744,-6200
3120,-6068,17424,-482,-7706,-4895
4972,-5548,15600,-1317,1139,-1797
4316,-6228,15664,-1312,2186,-892
4212,-5628,16876,-634,1483,648
2676,-5776,17048,1742,2503,4363
4080,-6376,16756,-162,-2971,1318
6112,-7900,15236,-3579,4562,-2780
3968,-5880,16320,-2330,-5622,-4594
6188,-6840,14296,-1962,99,-1440
6332,-6808,15912,-2106,1560,688
5344,-4856,17744,8173,2738,4918
4920,-4624,15444,11535,-15936,7858
4884,-4832,13120,-9265,25545,-10426
4128,-4056,17404,-6663,-5466,-4824
5924,-5748,16424,-3915,736,-157
6280,-6620,15304,-293,724,1170
5416,-5372,15872,2360,-449,2212
5780,-4356,19364,5604,5087,193
4620,-5336,6464,-1231,-10878,5082
4932,-4944,22472,-8651,5437,-6059
3120,-5496,15652,-6430,-1983,-2960
5676,-7428,16256,-1359,-675,616
6324,-6228,16316,3176,-1281,1485
3632,-4484,15036,7320,3979,8733
6424,-9128,-1008,-6484,-6756,3649
3548,-5824,21892,-5600,-3072,-5443
3920,-5972,14144,-3614,-1319,-4337
5728,-5728,16616,-2168,-4275,1063
7436,-6952,14476,435,19,2179
7268,-6772,16652,2364,-244,538
4796,-1060,17784,12767,-240,8434
5656,-5068,11548,-8569,18281,-10819
4008,-4120,17152,-4953,-3292,-2264
4864,-5860,16724,-955,-1734,-1317
6216,-5652,16072,1420,-3608,3169
8236,-7396,14132,-325,1093,-661
6316,-3464,14452,4244,-2837,-2270
5000,-3600,15036,-403,13923,4469
5688,-7780,12568,-6306,4870,-6711
2748,-5128,15776,-4100,-3636,-1270
4956,-6284,17976,-514,-176,-667
6880,-3776,18204,8724,-3148,4174
6652,-2224,17024,9533,-2723,4926
7976,-4284,6184,-8869,-3005,2892
5676,-6760,21560,-10551,3236,-2330
5020,-6304,14404,-7490,-2134,-4001
6692,-7284,18248,-3482,-2361,1146
6496,-9504,14092,5228,1421,2055
3648,-4416,19044,12831,-5342,5046
6952,-5912,7008,618,-5643,8863
4472,-6276,22380,-8649,8920,-2527
4492,-6384,14984,-6575,-2473,-4608
3764,-7772,15532,-1351,-832,-3563
5460,-7200,15444,2149,670,1252
4724,-4744,19092,10997,-1396,3776
6004,-6868,7012,-840,-15439,2919
4820,-4364,23196,-7269,1260,-1294
5200,-7336,13960,-6187,2959,-2897
4872,-9072,14732,673,-2940,-3789
5452,-6268,15212,406,1635,-3724
5996,-4120,16192,2697,-1799,2755
4256,-2188,20452,10235,728,10331
8548,-3848,15636,-5396,2807,-2265
4340,-3616,16464,-4962,781,-5158
4156,-5184,16036,-3733,-813,-3638
5588,-5768,15564,-2987,-517,-3244
6088,-6408,15764,-1234,1536,66
3472,-2668,19040,7654,-1143,6987
7188,-8912,7088,-2008,-8166,7949
4716,-8964,23164,-7000,9417,-4835
3744,-7352,14368,-1763,-2478,-8292
3908,-6692,16652,-697,-396,-2265
5840,-7396,15204,-105,1434,332
5428,-7640,15724,1615,-1227,1502
4580,-4004,18468,6221,2069,5128
7188,-9592,9420,536,-12085,8256
4820,-5908,23304,-5750,5412,-7135
5260,-6716,18136,-3366,-920,-6090
6004,-6248,13768,-1651,-1605,-3834
6592,-6312,16340,-711,2458,-221
4548,-6524,18044,5582,-1102,2705
4260,-2516,15516,13298,-5368,9253
8588,-5760,4196,-7728,6031,1016
3324,-5564,19204,-8608,-3034,-4472
3992,-7480,16236,-5999,-1393,-4210
4824,-7064,15988,-3320,1665,-2177
4944,-7380,15652,-264,654,1733
5872,-6964,17508,8502,-3806,5413
5728,-3068,13124,11428,-13391,9309
9540,-10268,21792,-4738,25196,-8181
6408,-3468,15872,-29,-5818,-12946
5636,-3764,17032,-5261,6342,-8793
3448,-3296,17744,-1250,1754,-2436
5508,-4332,20516,3473,-2504,7863
5056,-3600,17776,12760,-1751,14379
5640,-8636,-3100,-9043,32767,-2534
6276,-5600,15688,-7095,-11636,-2767
6696,-5904,14592,-2681,4944,-8433
6604,-4048,16524,-1826,2748,-4252
5488,-5364,18004,2313,2615,4307
4732,-4676,18856,13842,-4540,9694
9776,-9336,-464,-1487,-22973,11167
5292,-6220,25656,-10087,2480,-4344
5724,-6860,14432,-6759,-2783,-7268
5316,-5760,17116,-4040,2470,-7507
5224,-5816,15796,900,3637,-1997
4360,-2748,18736,11404,260,9737
9824,-4412,9364,1481,-14764,9169
7208,-4984,19216,-5707,8029,-6972
3548,-4056,15028,-7331,-2200,-5957
3420,-5336,20212,-9037,6962,-3672
3840,-6864,18336,219,-621,3753
3204,-7316,16104,8195,-1556,9425
7108,-3348,14676,6664,-19575,6776
6516,-8812,27504,-13395,30012,-8447
3468,-8356,10692,-7095,-4684,-7942
4688,-8992,17972,-2559,3931,-3012
4372,-7296,15492,3023,1861,-90
