ax,ay,az,gx,gy,gz
2492,-16980,1688,-1081,1352,-2978
9412,-13728,-3620,-411,-5732,920
9328,-13352,-1240,-1923,3109,-41
2556,-17496,4,-2002,7194,-2285
1484,-17800,2496,1501,-4423,2246
12588,-19716,-8936,1067,-15639,-6414
9452,-10076,-15316,-32768,13384,-23792
5740,-6064,18716,5772,6048,16424
3004,-16916,-22356,15823,-12498,2549
4752,-15452,4008,14864,3152,18147
-424,-22132,-6828,2427,7021,118
8028,-7928,-5548,-6433,-14315,640
4292,-14896,3592,-4129,13028,-9537
6760,-14024,-8984,2259,-13874,2475
12624,-15284,-7476,-9454,231,-7537
6580,-9532,-14888,-30579,25430,-7259
12624,-8720,14660,9070,-14036,8960
9020,-13252,-16736,14466,-3558,8166
10620,-14284,-7348,7260,-4477,6066
10376,-13968,-8692,-783,667,-2746
4140,-11308,-2016,-17534,25060,-13099
8532,-16152,-14892,10649,-2158,12901
7980,-13272,-13356,12530,609,4382
10284,-15116,-6216,3358,-4191,-129
9236,-17624,-18116,-21052,-9144,-7476
7944,-9528,-8092,-15412,25922,-13893
10268,-9440,3712,1994,-2676,6448
7060,-20140,-8928,16109,-10606,18163
6284,-18660,-2604,7087,17551,8381
11628,-16456,-4924,1245,-14923,2424
19376,-11812,-2920,-8976,-2994,5065
-2900,-15888,16620,14267,22871,12368
-9392,-28640,-5328,8439,-32768,8306
5680,-13564,6996,3069,-3854,-1212
3660,-19416,624,-20642,11975,-8518
3780,-14872,-3664,-9305,8991,-11501
9604,-11896,9380,-11339,939,-4512
9840,-12288,-21580,-25406,-4143,-1359
6780,-6432,180,-26523,28774,-10080
12108,-7252,3880,5341,-20202,9650
9880,-13948,-12828,17563,-12887,13749
7148,-10552,-10472,19321,11648,9758
7604,-16948,-3308,5829,-9766,7809
7496,-18416,-9984,-22137,309,-14728
4720,-11476,-11008,-29165,10320,-9745
8748,-5612,4368,-14256,19401,-729
720,-19392,-8744,16855,10464,16895
-6416,-18924,3688,13947,-24953,9425
1976,-19232,-10368,9891,-17138,-8342
4908,-15260,6640,-2212,-14267,-1920
3308,-23172,-3900,-23452,15760,-13068
2148,-16144,-15716,-32768,16433,-2372
4864,-11076,-236,-30693,19035,-2637
12276,-6984,-1924,18452,-32204,12804
8572,-10272,-9404,19406,-2684,5950
9520,-12892,-7232,15787,2452,12967
7912,-19032,-9540,-1019,-5309,-781
5476,-11932,-7080,-9251,3086,-5984
3268,-16396,-728,1101,1394,5310
5328,-15624,-3208,6533,399,1690
7444,-13340,-10240,-5689,8740,-541
11576,-14460,-9780,-15753,-18728,-11248
5772,-11064,-12352,-25166,17999,-12088
6788,-2252,16316,-924,25189,3733
-1292,-24472,-28552,26184,-32768,14184
6996,-16252,-4964,12055,29134,10467
4964,-17384,-9920,5357,-9522,7710
6068,-18228,-8404,-1665,-20369,-11565
3020,-15772,-17556,-32768,9371,-8014
4220,-12168,-1936,-25301,20417,-9360
10524,-9516,8264,16501,-25943,11040
6284,-12864,-15788,17269,6050,11559
7224,-17244,-4180,10654,522,11199
9056,-16356,-10156,5067,-4801,542
5320,-16524,-5628,-7310,4446,-4095
2932,-14172,-2068,-162,2793,2714
2224,-20188,2036,-1357,4173,524
6308,-9084,-4428,675,-157,-844
9112,-15060,-7604,6929,-4493,3079
7028,-21096,-14984,-19247,-22868,-8612
9360,1816,18440,6886,-10669,16564
4780,-15340,-21092,25633,-193,7061
4572,-20040,5848,10500,3479,13663
5948,-16544,-11976,-2885,-1950,-2998
6484,-11776,-7184,-5789,-1121,-7507
7992,-8940,-7300,-2137,-1429,2898
5224,-15772,-4172,-3124,5323,-3508
3192,-16516,508,-7102,4404,2515
9400,-13696,-8552,7135,-6733,778
11984,-16060,-14468,-2293,-12805,-9175
6440,-13172,-14584,-30448,16430,-15070
7488,-7088,12108,-16657,27241,-3579
2204,-21476,-13584,22973,-32085,9908
7852,-12668,-5512,4414,12897,16002
10528,-12240,-11668,5192,3544,2344
10628,-15280,3676,19852,-18616,-1125
8132,-15968,-17004,-10647,-19210,-13170
9212,-9888,-11536,-32768,6190,-5881
8608,-9580,6708,-32768,26040,508
11372,-8408,-3684,3049,-10044,15319
9744,-18756,-2856,17183,-10964,26127
9408,-21460,-10664,27089,-10088,7989
5192,-17120,-2132,7383,-12376,-4062
7532,-15020,-4932,-17122,1808,-598
4740,-17032,-3860,-16857,8326,922
1388,-17680,376,860,2223,553
5016,-17936,-3480,11823,-8071,2322
9412,-14200,-8080,-8910,5938,-1997
6140,-9016,-2228,20212,-11136,21605
-492,-17592,-11288,4832,-14373,156
-720,-23668,-3624,-26056,16843,-12189
-5460,-16504,13304,5376,18172,-11631
6312,-14024,-9148,2499,-11505,-1242
6848,-14188,-12664,-2165,-2256,-17852
6776,-2304,-16140,-28038,31358,3589
15544,-10360,11804,-12625,8064,3911
15948,-4216,-2080,13118,-16554,-9054
12520,-15352,-4744,-631,-12562,-9111
13992,-11132,-8228,6890,-17786,4092
7988,-9628,-4948,3106,10423,13228
6172,-6576,-3520,4672,20509,20357
14404,-14684,-27072,-18562,-30004,-19761
5292,-4112,-8548,-21405,8618,-29965
9780,2952,-2212,-9299,-7873,-5214
8236,2988,-3556,11300,6301,5151
8856,-7032,-2004,23399,-15710,27471
2232,-23336,-9500,28417,7596,18077
-1336,-24168,1920,12029,-20988,2070
7292,-16992,2604,3323,2371,-8026
9488,-14428,-14420,-32768,-32768,-19485
2440,-13088,-5376,-32768,32767,-12529
8936,-7488,1984,-16568,280,9434
12300,-8852,6120,11297,-16507,21572
5932,-20908,-14832,19727,-18428,14061
9584,-12124,820,7289,4546,6389
5196,-13176,-10956,-4547,-11219,-8960
4940,-10288,-12048,3448,-4493,-3596
3288,-13636,-3564,10830,10594,6226
-980,-26044,6408,-11825,13344,-5735
3160,-16880,1660,-12603,-506,-8467
4800,-6000,-1792,9793,-2854,4109
8332,-24344,5312,28639,-10496,10434
8924,-16552,-8964,-14184,-16926,-15977
8608,-10184,-14804,-32768,-1110,-13381
6524,-3176,-5680,-32768,4819,3431
13476,1600,4188,5088,-15975,23535
6356,-17716,-3416,17466,-2119,19132
4656,-23924,1200,21817,-8490,10673
7356,-17712,-5380,-12896,-18488,-13039
6836,-8596,-12080,-11651,-507,-9091
1432,-17460,1824,19565,16253,18753
-1364,-23796,4388,-3597,99,-196
9508,-13148,-5132,-14620,-8787,-10925
6760,-11048,-2940,4150,7818,6967
7068,-18836,-1752,4204,-9573,-5189
7572,-18672,-7060,2883,-17713,-17029
10912,-14568,-9552,-32768,7836,-7380
8416,-12056,3788,-29224,20238,-9959
10932,-9096,2748,21448,-18829,6946
10196,-10924,-5588,12836,-7149,12523
10804,-18420,-23352,6836,-4365,2065
8944,-7532,-12948,-16751,1896,-15202
11812,-6988,-6612,-22564,3666,-4767
16344,-6300,12740,2672,-12058,11127
5528,-10416,-19324,21301,18194,4979
11492,-20444,-156,5809,-19403,16969
9236,-14972,-160,-1359,6792,-1061
7760,-12752,-6656,-5058,948,-1473
6916,-13404,-3480,-898,742,-1773
-1424,-16196,-1340,-1006,14921,2469
-472,-19624,-4264,-5487,-3289,-4583
9600,-8732,-6356,5933,-16661,1492
9496,-16284,-8364,-3365,9048,-3235
3500,-8408,-6544,-2160,5903,565
-76,-12416,4896,23330,-11066,16917
-1080,-23472,-6564,-119,-7987,5628
3128,-31356,8008,-30559,3901,-23632
2136,-21004,-3492,-32768,29030,-28157
7788,4428,-1144,-9037,-8382,-9044
11252,9500,-13684,-6347,-2287,9773
11560,3504,-8124,-1058,5293,30303
22496,-9672,-16100,2483,8496,-9594
14536,-2596,1740,32767,-20384,-18711
9516,-1924,-11416,8595,17449,-15852
12976,-2720,-224,13106,-7105,4814
13820,-11852,-7360,19241,-17168,1908
10216,-13300,-19260,22066,-3548,-17722
9620,-8104,-11576,-8558,-7524,1369
9908,-5176,-16428,-23207,5798,9734
5428,-4664,-11920,-32768,16079,24638
7048,-6500,-1544,-15346,19248,24051
8512,-16196,-9980,11141,-32768,11126
3572,-15384,-4316,6357,27927,7615
7656,-19888,-11000,15783,-32768,10507
5884,-14016,-2768,1597,-11424,-3103
6664,-13892,-5948,-3681,-2513,-2560
684,-17448,2376,-1638,12093,-3197
1032,-19584,1396,6376,-3142,5935
7288,-16828,-3348,-152,-4425,-357
10276,-15716,-5488,-7223,-3393,-5475
7956,-11028,-6076,-5156,368,-2671
-2988,-17928,8092,13096,8512,9558
928,-23264,5468,15153,-13421,-367
7048,-22432,-1196,-26692,-17537,-21601
6832,-10412,-16364,-32768,16731,-14201
11996,-8396,6332,-28435,1740,-9411
8924,-3780,-4496,32767,-16556,17146
676,-12164,-4036,27468,-1053,29334
7496,-22476,-6648,-1898,18966,-1094
7180,-11224,-12016,-4405,-8213,-5411
6424,-13556,4500,11979,-2577,11458
248,-22228,5144,-9295,10221,-1080
3664,-12880,-1068,4148,-1521,-24
12076,-21128,-15744,-1974,-25855,-14076
5132,-10172,-15016,-32768,1986,-16130
5848,-12476,26560,-32768,32767,-14089
1688,-16712,-1540,30107,-32768,21781
6896,-20084,-6808,15168,-2265,15526
6772,-14752,-7460,8113,3344,10252
7040,-17260,-8408,1861,-2559,-1131
6648,-12108,-6052,-8551,4197,-3464
2664,-17024,2176,5132,10085,5208
2012,-18552,15000,8170,-24135,-278
2156,-12216,-32768,-19996,-16881,-4002
5028,-8120,-16668,-32768,12919,-2317
5892,-12784,17676,-28467,32767,-3694
8020,-10096,-6092,9596,-29404,20113
7644,-15724,-5832,13100,-9070,17180
10280,-15116,-9704,18745,-6816,9748
8472,-16888,-7004,5560,-3340,-80
7448,-12820,-8068,-13576,-811,-5717
3308,-11780,-4140,-4078,5799,-148
92,-18912,1908,4479,-4150,8510
4892,-20380,-5676,-3476,8814,1910
8340,-11112,3632,27181,-13170,7462
3664,-21612,-7128,10365,-8311,630
7896,-25888,-9272,-32768,-2676,-16526
3756,-32768,5604,-32768,17215,-19987
7856,-14524,-1904,11796,-12616,3940
6424,-13040,-10876,18089,-1686,12872
5116,-6824,-11124,8797,26589,20215
11140,-24984,-4900,-9710,5168,-8951
10624,-12920,-16448,-21409,-21255,-29850
5340,-1320,-3964,-2708,14773,-30275
14124,-2140,8100,32767,6675,-910
13544,-5692,-5764,30278,12208,11046
9856,-13288,-7184,7175,3115,16255
9164,-19728,-4504,-19286,14848,5326
7480,-11208,-7972,-14724,3317,6
5596,-13512,196,8945,3379,8562
3080,-25256,1360,-3119,-123,-1893
2784,-16304,-1648,-2027,-2733,-5587
1552,-16420,364,19626,-23655,-5544
728,-10400,-22216,-10167,-32768,-15453
8016,-8472,-19824,-32768,12737,5060
2248,-7240,-8584,-32768,28536,10756
10144,-15092,8872,-21022,1614,22672
11376,-20068,-3192,16582,-7562,21078
7676,-24568,4052,8027,-19531,18360
8840,-13904,-11148,457,9176,-1577
6204,-13716,-7084,4224,-13781,-2805
9228,-13760,-10084,-3834,-2928,-6032
3040,-6604,-3008,-9836,13290,6070
6404,-23568,10312,6799,-177,17494
3664,-24316,3720,21183,-15190,-2763
8724,-21544,-8100,5288,-32768,-24849
8652,-6068,-14604,-32768,9472,-5371
8972,-7724,4632,-32768,28165,9500
10576,-8164,-5760,9681,-21323,19779
11588,-11476,-180,5953,-37,19231
10900,-13944,-3612,13545,-11104,19033
16088,-23964,-7216,-4647,-13283,-32768
7992,-2932,-12408,-12624,6808,-16462
13104,-3940,21128,-714,2030,5699
11256,-5404,-12652,20079,-6821,19714
14220,-19336,-10780,10210,9329,11768
17872,-19576,-3672,-17301,-7989,-18092
5792,-8148,-7556,-26794,25809,-11708
13880,-7536,24472,14084,-7249,9368
10716,-11848,-10752,17460,-9937,10531
14428,-13372,-3988,17766,295,10102
14844,-17724,-8908,-6709,-6098,-1501
9636,-9316,-19268,-31990,10234,-10671
10628,-8424,17772,-19118,30498,-10569
9688,-6028,-3808,22206,-18067,10645
9828,-13892,-1544,16388,-2020,8645
11792,-14904,-7480,7340,-10521,1486
15072,-12460,-9624,-14542,196,-6129
7948,-5620,-16704,-29319,5181,2947
15332,-4804,24356,7160,-2805,5487
9804,-12260,-14252,17275,-1975,2026
10236,-11400,-4884,15673,-2177,2331
17064,-13884,-13168,8318,2456,-158
12900,-8136,-13284,-27833,-10549,-4706
3988,-9836,-5596,-23072,32767,-7668
12016,-11696,8372,14175,-22940,9591
9588,-12872,-14104,16243,9292,11098
7672,-13248,1080,6937,12737,18792
280,-24392,-8248,2620,32767,13698
-408,-29432,24020,-8432,-8068,-25138
1552,-18516,-11384,-20167,-13003,-27151
2608,-4252,-2916,18167,4429,-32532
12724,-9508,-7476,26080,-24475,-9745
12448,-7404,-9412,12417,20480,10618
11408,-14948,-5612,-530,14315,22591
5756,-19256,-3620,-8580,31691,5154
3880,-9212,-1832,-6081,8427,6923
6412,-27032,5824,1255,-4333,-439
6724,-16760,-5604,-3003,-3776,-8148
940,-3280,2168,-6498,9995,-9913
14392,-22296,-1480,3042,-21386,6576
7176,-14372,-10420,-5419,18653,-6474
1824,4872,2928,-9253,21848,21124
-412,-32768,-2408,2059,-1661,8899
4496,-19296,-1224,-19419,-29146,-32768
-856,-636,-1836,-1699,20681,-31856
15140,4500,7996,16650,-3371,20214
-2348,-7352,3208,26207,13949,32767
-7352,-32768,4560,27908,-32768,28856
-252,-26952,5780,-15714,1151,-12386
164,-17916,-24340,-32768,5936,2078
7576,-1808,7208,-32768,14019,-5653
13248,-572,4308,-3931,6533,20686
5040,-30132,10728,21667,-19657,32767
2776,-18812,-7016,-12686,-32768,-19713
6784,-9348,-9280,-7589,-769,-9724
8920,-6920,2080,-2972,8169,6959
3712,-22724,-4660,6208,-1997,11564
11788,-19064,-6136,-14157,3847,-7648
6984,-1084,-12564,-20002,-5819,-25466
26268,-14000,-19920,-4705,32767,5001
9832,-2368,4312,32767,-32768,26819
6092,-13048,-1468,20711,32767,20818
4832,-26168,6940,-421,-9793,9274
2812,-18140,4384,-10472,197,-10817
4036,-10420,-1572,293,-8464,-2831
8020,-19236,-216,2720,1931,3089
8868,-17196,-6268,-1765,-8771,-10497
8532,-9072,-13920,-18604,1986,-9177
12452,-1808,-476,-29310,-1153,1539
14840,-1308,9888,15407,18927,10713
5036,-12324,-7576,18197,7600,15226
14340,-30452,8540,-1860,-9034,10975
12472,-16384,-10864,-21401,-553,-23385
7336,-3088,-9604,-15027,496,-15961
7880,6096,11916,17092,30492,10360
5372,-9732,2260,26785,-6494,26803
13972,-23448,11792,21771,-23161,14603
11712,-24752,-13440,-10073,-26453,-10954
6096,-8964,-10244,-32768,16277,-11893
10264,-5340,11008,-32768,7295,9966
15652,-6568,9412,-8683,1870,19273
2756,-7376,-8980,10627,-13376,32767
-2072,-19088,-832,430,32767,25087
1828,-32768,4352,-674,-13013,-4838
2524,-23708,-4840,-11277,-13705,-32768
-2732,-1724,-10564,13479,-14052,-32768
18832,744,-732,10687,-3756,-7333
12584,-1784,-3888,10390,-1179,6219
6020,-6008,-9380,6915,12506,18673
4232,-9128,-10400,7940,32767,32767
-652,-32768,25952,-5051,19046,-11940
-208,-18220,-5132,-4196,-27541,-32768
4480,2408,1648,-4320,-6134,-28090
11076,156,-12140,5069,-18226,13284
3928,-9376,7088,14932,14863,21924
-600,-22296,2772,32767,-12612,32767
1768,-27240,-10492,18592,-29160,-6077
1732,-15196,7720,-13512,18662,-11211
1372,-26544,-16532,-22831,-17122,-2962
-2132,-13720,-9060,-32768,19635,-27129
4616,-15044,20980,-31574,32767,-674
5088,-6040,-5456,13596,-1773,17190
2732,-12936,5776,13282,-4403,32767
3560,-31848,5704,15515,11719,32767
4988,-29000,4272,-1461,-15613,-15816
1972,-16216,-4536,-29323,-8115,-22290
4208,-13648,7536,7756,14309,-9507
6576,-8068,484,15221,-32768,14119
3512,-5248,-17996,-4432,32767,20177
9964,-27644,-13284,-26150,32767,9311
10148,-17600,4464,6935,-30147,-28686
2208,-7960,-12108,10503,-2775,-32768
7932,-5176,-8364,27008,-7354,-28929
8860,-372,-12652,17180,6519,-6730
6332,-5500,-24432,-9962,6060,12339
6700,-4524,-8292,-20054,11514,18377
5020,-14020,-488,3456,32767,27533
480,-24724,11440,8272,25045,32767
-1860,-32768,9260,-108,-4298,-8849
1676,-19820,5636,11037,-22722,-32768
6144,2616,-6728,-2758,-12405,-25653
15856,-5184,19612,-14208,30175,5461
5548,-21932,-12440,14732,-25823,22897
4952,-21764,10136,8124,23092,32767
12188,-17032,-6396,-3312,-27397,-13057
8020,-7056,-6056,-10159,4020,-6683
6988,-8688,-9596,5751,3098,5286
-228,-19256,7072,9736,17416,10567
2976,-21596,3580,-7583,-3650,-8174
8016,-10900,-3180,-7847,-4362,31
8944,-11304,-4396,6751,1958,4493
6880,-16344,-1812,4907,3605,4106
-1744,-27456,12420,-13313,4481,-17625
3080,-17704,260,-5116,-2140,-12745
7572,-1580,4,2882,-878,4185
12072,-18076,-7236,903,3133,4064
9312,-9200,204,-5588,-4213,-2379
436,-12300,-1620,-2157,13193,4825
1768,-29860,8028,9468,-4807,11125
8652,-12792,-7956,-13373,-2925,-15220
7484,860,-7660,-27208,23874,24272
-8108,-28160,712,-9404,30096,9106
464,-28108,-6208,-10162,-32768,-32768
1844,10096,2084,27661,23146,-32768
15276,5984,-9668,15083,3859,-114
7780,564,-1804,32767,18904,5137
-1128,-22444,-2724,32767,-14503,32767
10780,-26668,-7184,10175,-20666,-21059
9032,-12064,-3192,-32768,-21649,-21546
2440,-5664,-4872,-32768,-4,20320
10496,-14376,-9648,-16850,30559,19899
4064,-9320,15028,5960,-14845,32767
14980,-32768,3732,21949,-18651,24340
10400,-12848,-1040,-22432,-26888,-15464
2532,-11524,-8100,-18044,15253,-14111
8880,-11472,3772,6230,-4859,8105
