ax,ay,az,gx,gy,gz
6840,-12488,-2840,-4782,9797.0,1161.0
568,-3576,5188,15833,-23044.0,2055.0
13824,-23608,12608,16543,-5076.0,9253.0
-3108,-8276,-3336,-9998,30036.0,3499.0
3544,-32768,8128,-22796,-1611.0,-25640.0
-4,-11624,5660,7489,4850.0,619.0
1748,-2540,896,21259,-27231.0,5098.0
-1544,-11408,632,-25084,30825.0,-7008.0
24312,-18720,4844,-13891,-14497.0,-13933.0
628,-11912,5176,16590,10014.0,7039.0
216,-17304,6404,18463,-29313.0,5488.0
10996,-19044,1032,-1436,11696.0,5116.0
4948,-14192,2888,24527,-31043.0,5831.0
5352,-18640,6296,-7527,29375.0,-386.0
3116,-8156,-4652,-22039,5050.0,-5129.0
1340,-6768,4448,14256,1490.0,6637.0
4432,-17664,-3340,23092,-30394.0,8332.0
4200,-13384,3080,-10013,15606.0,-4177.0
668,-10780,8084,17792,-14288.0,14081.0
9976,-18812,1664,25230,-29866.0,919.0
4828,-12064,-3928,-9892,22133.0,4706.0
280,-12504,868,-23890,15865.0,-10018.0
2696,-26952,7056,1709,3930.0,4.0
-320,-8932,5728,18368,-11981.0,6178.0
13768,-29184,7524,19721,-20256.0,12249.0
-1760,-20124,840,-22621,25662.0,-9757.0
7272,-15716,5424,7976,-16021.0,6812.0
-2040,-11016,8648,21449,-14575.0,6456.0
16464,-18300,-2048,51,5877.0,10441.0
-1760,-12796,6332,-22321,22495.0,-11516.0
4744,-32228,2120,-9023,-6892.0,-10436.0
1148,-5996,9104,14467,4119.0,8866.0
11548,-21380,-3480,26788,-32768.0,4097.0
5700,-10632,4308,-16989,19282.0,-2157.0
3312,-6292,-6024,-24081,8059.0,913.0
1448,-25488,9764,6528,2551.0,5073.0
-1624,-6168,2584,22390,-18723.0,7017.0
19200,-24472,1104,11342,-23111.0,5410.0
-780,-8004,5088,-19514,19233.0,-1666.0
-384,-8180,11132,14401,-6259.0,2450.0
3548,-8896,3052,19010,-14524.0,2609.0
4456,-19540,-2340,-1991,14777.0,7546.0
1780,-5276,1028,-19877,11626.0,-7981.0
8852,-29620,14244,-2003,4563.0,-150.0
-176,-7656,5692,14006,-8270.0,4433.0
12272,-32648,11388,13381,-23485.0,6048.0
4788,-12800,1228,-10878,23659.0,-974.0
-2172,-7004,1896,-15029,19145.0,-10201.0
4788,-23776,1984,3196,-10505.0,6290.0
-1596,-5308,7844,15394,-11678.0,3413.0
18020,-30020,4400,6142,-15795.0,2602.0
-216,-4668,4432,-14137,20045.0,-5721.0
1212,-13624,6988,8036,-16644.0,4202.0
1980,-8116,1476,10839,-5538.0,1229.0
9052,-21688,-6096,3484,4031.0,4583.0
2096,-5992,336,-14982,5907.0,-3127.0
10572,-29104,12784,-9734,13423.0,-5165.0
7432,-18280,4692,14300,-12768.0,5351.0
3956,-5480,-1300,-17249,4324.0,-4621.0
-1572,-28372,14636,-3418,21615.0,-1258.0
696,-8076,1980,2231,-16182.0,3686.0
1528,-9828,5976,14524,-17112.0,2853.0
5396,-15780,-8888,-9777,9846.0,5850.0
11032,-21140,12436,-4626,21774.0,-5852.0
-1772,-8872,4292,14684,-16593.0,1896.0
11820,-22304,9704,8441,-19577.0,2567.0
5976,-12688,2712,-13830,12846.0,3175.0
1832,-6856,-3972,-15308,16060.0,-3510.0
1040,-8872,2932,14672,-11600.0,119.0
14676,-22156,416,7380,-2341.0,4635.0
4756,-6048,-496,-11285,2817.0,2069.0
628,-4700,-1936,12619,-16979.0,7142.0
7244,-20100,524,-2493,12815.0,-640.0
2440,-7596,1624,-13456,8213.0,-891.0
2084,-28660,14072,-6737,18947.0,-6000.0
-608,-8556,944,2579,-12570.0,-2050.0
12940,-15516,4352,8309,-20910.0,4298.0
-3180,-8376,2944,10217,-18605.0,7928.0
15980,-23468,3724,1447,-6691.0,-1834.0
2556,-12416,7864,-16974,10787.0,-2958.0
13012,-19700,-3048,2854,-1904.0,7819.0
2656,-9916,912,-20263,10081.0,610.0
8692,-10324,4792,17100,-8499.0,4705.0
7504,-17432,7472,-7224,18079.0,-3614.0
4932,-7252,-2656,-20311,1050.0,-6820.0
5980,-10544,7712,17296,-13085.0,9748.0
1196,-16560,-1716,407,25848.0,1168.0
4420,-8404,-440,-18643,-8141.0,-4497.0
1852,-32768,8384,-8054,31618.0,-7970.0
-1324,-7460,4536,14085,-17190.0,3113.0
10704,-31712,5112,12185,-31771.0,7265.0
6348,-14104,5616,-17851,24853.0,84.0
3192,-16484,-7196,-14876,6001.0,-2373.0
5120,-15764,8116,11718,-3717.0,9638.0
-1200,-13408,564,13532,-7708.0,5853.0
9236,-32000,2940,-1855,-18418.0,2244.0
664,-21444,-2680,-9043,15535.0,-5365.0
804,-14092,10252,7348,2190.0,3102.0
6524,-13200,4904,21704,-15757.0,9541.0
4672,-8772,188,-19283,640.0,-7748.0
7380,-29500,6468,-1097,16969.0,-1611.0
-3856,-12220,7292,12063,-17942.0,7266.0
9676,-19564,-5448,11142,-26866.0,2274.0
1552,-12196,1476,-6513,16866.0,345.0
-2324,-25864,4656,-22994,18139.0,-9121.0
-832,-11120,228,19108,-15972.0,7515.0
4684,-12044,-3356,-16406,13729.0,-678.0
-1728,-12076,12780,12538,-15570.0,15722.0
3388,-14084,4924,7531,-16932.0,4736.0
3752,-17716,6412,-2904,20914.0,-2897.0
2836,-8136,-1048,-18716,7968.0,-7752.0
14180,-22144,6176,-5844,6765.0,-5240.0
-1508,-10872,2644,9598,-14644.0,6553.0
15968,-22584,3256,13828,-24618.0,4840.0
3488,-7628,3240,-5367,27822.0,-4065.0
6488,-17308,-756,-23538,-4011.0,-8513.0
5872,-15072,10104,6817,7103.0,5280.0
-2296,-9748,4,14054,-15487.0,2450.0
20140,-23164,124,9556,-18185.0,14823.0
1916,-8768,2372,-18168,14958.0,-3342.0
3144,-32768,-1476,-11751,9515.0,-9908.0
-1580,-5868,9512,11570,-2541.0,4118.0
10800,-16868,6756,20679,-21404.0,9915.0
5796,-12192,-1832,-6595,17543.0,-550.0
5736,-21240,4092,-27511,13131.0,-10665.0
13048,-9204,10264,-158,19488.0,-5352.0
-4624,-11968,2652,14457,-31249.0,10713.0
15848,-21852,-3836,10534,-488.0,3763.0
3256,-7036,-1788,-12199,5816.0,154.0
-7428,-30292,1264,-21100,32767.0,-819.0
-2012,-11060,7312,10245,499.0,-232.0
-1176,-14408,6088,18027,-22239.0,6831.0
10092,-17648,-9092,1287,-10164.0,7975.0
7592,-26548,10292,-10782,-10011.0,-19470.0
704,-9672,-80,10324,4763.0,2662.0
5068,-20024,12080,25126,-22659.0,20279.0
2508,-15348,-2088,-6320,20831.0,-1090.0
2300,-7284,-3792,-19329,16214.0,-7280.0
2160,-25696,11944,878,5472.0,1328.0
-2168,-8856,6348,17615,-8383.0,4718.0
2476,-14240,5448,-17651,25158.0,-3069.0
2456,-14884,4488,16012,-5233.0,9089.0
-284,-13824,6100,19749,-12630.0,5040.0
14976,-25492,1128,-1587,-9997.0,9671.0
2008,-8896,5268,-24866,16269.0,-9837.0
5948,-30940,-8512,-8575,8186.0,-6472.0
-1612,-7484,9072,22726,428.0,6634.0
5192,-14672,9732,15052,-26455.0,11625.0
4576,-17296,-2120,-13291,32767.0,-370.0
900,-9980,-2152,-30191,11995.0,-9001.0
7104,-18172,2292,4246,-768.0,-3999.0
-932,-7744,6052,20499,-1349.0,7878.0
2360,-6620,3056,-16108,18302.0,-744.0
3060,-11232,7232,9090,-395.0,3213.0
-964,-14420,5928,28715,-16425.0,15178.0
13280,-22256,-7932,2695,-3408.0,3017.0
-11268,-32768,10340,-8433,28749.0,-16541.0
5904,-13976,-3024,293,19780.0,1033.0
2544,-8520,-1160,-20488,-537.0,-6109.0
-932,-2636,-2940,16851,-16602.0,-3174.0
13144,-27028,6376,14032,-10894.0,10433.0
2300,-8368,-1476,-13388,12150.0,-1083.0
-4468,-32768,392,-22314,23782.0,-10465.0
-800,-8112,460,14954,-16534.0,6563.0
9860,-23060,-5920,3766,771.0,13268.0
2576,-9092,-1292,-17917,3992.0,-4805.0
-2704,-30160,15376,1026,24041.0,-13954.0
7392,-15056,8936,9065,-9115.0,3427.0
6936,-16652,-1772,-12823,24155.0,-2607.0
1028,-8680,-380,-18755,9510.0,-7506.0
5588,-22408,8864,5482,2510.0,2605.0
288,-3940,-3736,19887,-14432.0,2723.0
7988,-19528,13716,6560,-663.0,-652.0
828,-7660,-7748,-19233,21525.0,6102.0
9324,-25812,16072,-1937,-8321.0,-8720.0
1692,-11000,-1604,14306,-6282.0,8132.0
8340,-12112,5796,16819,-20371.0,5735.0
5444,-14068,7520,-6358,23764.0,-1150.0
6596,-25752,16004,-6319,11698.0,-6654.0
-3204,-6624,1760,13145,-6910.0,1719.0
10448,-30512,9504,11719,-26502.0,4863.0
2852,-12456,3928,-18045,27025.0,-2151.0
116,-25132,-36,-18525,10795.0,-10655.0
4120,-10508,5276,10084,-3237.0,9172.0
736,-20920,-9820,-2476,5457.0,725.0
3008,-9300,2676,-19969,4036.0,-3201.0
3520,-32768,11128,-5229,20561.0,-10799.0
-3388,-10004,3660,17808,-25777.0,4646.0
13344,-21008,3992,11184,-17352.0,-1593.0
4600,-15184,3700,-14834,26676.0,1233.0
-2672,-5888,-132,-17777,15967.0,-12846.0
8116,-18120,2544,9920,-7484.0,8400.0
-2212,-9004,4012,15821,-9634.0,8208.0
1032,-7400,3776,-17184,11494.0,-6137.0
3052,-31728,2228,-7683,4845.0,-16155.0
-1416,-9416,5564,14150,-1567.0,10893.0
4996,-15512,6772,13448,-26016.0,8581.0
5476,-16392,-720,-5901,25262.0,-3652.0
3604,-4728,76,-17104,7687.0,-7072.0
3768,-22736,9760,6485,2304.0,7548.0
-1628,-9260,-268,17088,-22304.0,6117.0
14920,-20272,2068,15641,-11011.0,2008.0
152,-7852,-500,-22193,23866.0,1177.0
12688,-25528,5788,-15050,-2520.0,-19232.0
528,-10376,1420,24163,-6559.0,625.0
6940,-14952,11132,21125,-28810.0,-3298.0
5700,-11824,-11780,-5215,30391.0,2244.0
1132,-8416,3640,-20792,14848.0,-5958.0
4348,-29784,8536,-9131,7047.0,1374.0
-1736,-7832,6284,190,,3.0
6464,-6136,-1968,-2733,7850.0,7689.0
-164,-15168,2852,-29217,25014.0,-165.0
4612,-25192,11284,-9627,158.0,-7374.0
-2320,-6152,4084,12500,-2595.0,211.0
15988,-28568,13532,32565,-27264.0,2700.0
4052,-5180,-292,-4230,6219.0,2154.0
5372,-20164,2680,-5975,-22791.0,6477.0
-1588,-9176,8332,5771,-115.0,-1233.0
11116,-26956,6856,19959,-21450.0,3300.0
3172,-7296,-2600,-5448,1687.0,3574.0
-2680,-22992,6000,-23910,26873.0,-7348.0
2844,-16492,5024,-1643,5828.0,-1906.0
10168,-26432,-648,12997,-8741.0,4084.0
1480,-8988,4000,-20857,4020.0,-4501.0
3308,-32100,-2928,-13627,15932.0,-16091.0
1012,-10248,4932,15977,-2752.0,8412.0
4952,-10292,4064,15327,-26812.0,6007.0
4780,-16776,4804,-2678,26878.0,1046.0
4416,-7764,-6852,-16497,3293.0,-3009.0
216,-32768,20900,-9152,21101.0,-14248.0
7496,-18744,4840,16251,-21227.0,3474.0
2772,-12488,-1924,-2947,18985.0,1701.0
796,-20980,2288,-17788,5103.0,-5170.0
5828,-19524,7108,3094,2412.0,-832.0
16600,-16416,-3252,6399,-24414.0,3991.0
1252,-11292,4812,-17656,21369.0,-108.0
-2148,-30128,1396,-9734,14828.0,-9357.0
2316,-11248,3924,18259,-12616.0,9428.0
3832,-10688,9960,16130,-7733.0,3790.0
10732,-19356,-1752,-13117,-2713.0,6158.0
3716,-9448,-2864,-20771,14429.0,-2103.0
-2204,-32768,13288,-4088,12278.0,-12789.0
-1944,-8956,3728,16464,-11501.0,-1675.0
10576,-21040,7660,2214,-11529.0,5005.0
4172,-9768,-1256,-17353,10117.0,2370.0
-228,-28440,9384,-12947,17581.0,-15463.0
-180,-14140,5292,9900,-14146.0,8324.0
5384,-9088,940,12303,-14763.0,2198.0
1012,-8852,-180,-15273,20642.0,-1654.0
5604,-28256,19156,-6500,21434.0,-13613.0
684,-13560,-316,12633,-20898.0,3902.0
10468,-15328,15552,10939,-9068.0,7060.0
5748,-10428,-1884,739,20808.0,3016.0
2680,-7916,-3448,-17230,4716.0,-2081.0
4612,-27516,17488,-6033,20582.0,-3563.0
-2588,-6860,2856,12146,-9164.0,1794.0
2260,-9344,3388,-11118,13199.0,-3443.0
-4588,-19344,3248,-14693,27284.0,-6308.0
4516,-20160,5392,6154,-16052.0,5964.0
13192,-20112,-540,1043,-23475.0,4726.0
1296,-13344,252,10910,-10770.0,7156.0
2120,-7704,4232,12566,-8165.0,-2868.0
7996,-21680,3800,8771,-10473.0,-1850.0
3252,-5948,-6404,-14674,20325.0,3957.0
12380,-23004,5236,13850,-14796.0,-1670.0
3704,-3592,-2660,-6297,3562.0,5938.0
736,-32768,8724,-23856,25048.0,-14571.0
292,-11820,4556,830,-3839.0,
3428,-11744,4200,19658,-19079.0,-212.0
160,-9128,776,-23230,25810.0,1647.0
3804,-32156,4804,-16926,9003.0,-15592.0
-716,-10164,8616,10628,4178.0,1644.0
7916,-18676,10144,22025,-16007.0,2237.0
10404,-12576,-660,8632,-7027.0,4349.0
952,-7564,-2880,-23867,24007.0,1530.0
1940,-6408,-892,2458,8431.0,-2687.0
11176,-18488,6876,25644,-28366.0,8424.0
8856,-14876,2928,7211,7875.0,798.0
-3916,-10744,3384,-23772,28994.0,-5918.0
9036,-27800,10704,-13493,-852.0,9.0
-692,-10680,6120,15587,-1048.0,5331.0
7904,-21008,9616,23694,-24904.0,781.0
6944,-13828,-3292,-6674,18272.0,5752.0
216,-7800,3228,-22725,17167.0,-8006.0
5468,-32768,11364,23042,-32768.0,9268.0
5008,-10248,356,-13537,25774.0,1762.0
2992,-18480,6192,-32277,12048.0,-16761.0
772,-10088,8184,19403,-8507.0,15488.0
17324,-26972,-7112,9835,-25078.0,-837.0
-1784,-6480,1576,-20516,31182.0,4675.0
-1536,-28100,8188,-3426,3735.0,-5018.0
-388,-13324,8156,18232,-9177.0,10561.0
1076,-6600,-3488,-13387,23531.0,-1925.0
-10676,-32768,17176,-24406,23522.0,-25102.0
-752,-8808,11760,16492,-11746.0,6504.0
12844,-22140,-7512,10625,-15427.0,5097.0
3256,-28736,7184,-14241,8727.0,-19113.0
-1336,-11480,4848,15205,1494.0,1379.0
1852,-13860,13424,21168,-24092.0,12642.0
9956,-16504,-2460,-1815,7056.0,4408.0
2448,-8452,-704,-21167,16588.0,-2760.0
-2564,-10944,1512,11156,-59.0,-1211.0
8900,-16284,-584,1151,588.0,3257.0
1584,-9528,3768,-27682,21731.0,1762.0
-596,-7604,4980,12807,-8265.0,-35.0
8752,-11524,-5508,-4760,12374.0,14604.0
-2796,-9276,664,-17534,26085.0,-1039.0
5400,-25220,7020,-5239,-6364.0,2566.0
-5708,-10484,7616,15590,-992.0,-2522.0
11448,-32768,8560,18878,-31565.0,-960.0
2768,-9600,4884,-14497,20835.0,1969.0
4672,-14336,-900,-18286,7251.0,-5943.0
10224,-14624,4228,3814,-10003.0,2141.0
412,-20060,148,17604,-8021.0,4056.0
6684,-27404,6320,5052,203.0,8.0
3888,-10352,8044,-19389,16121.0,-2040.0
3464,-20592,-7152,-18230,5316.0,-9921.0
4788,-9228,6128,11834,5385.0,9191.0
3168,-12756,5576,15077,-11024.0,10421.0
10048,-21292,-4908,-6052,6500.0,2981.0
2248,-9684,4016,-19966,-2517.0,-11096.0
8272,-26316,-960,-2846,19183.0,-5788.0
-1620,-5936,8192,19562,-1183.0,15090.0
4648,-15380,2940,18372,-32028.0,3305.0
2812,-3400,-3008,-27954,1308.0,-4272.0
8636,-26644,6676,5266,5962.0,1661.0
-1400,-8000,6608,21434,3490.0,4083.0
8624,-27820,-2004,25732,-32768.0,-5471.0
4424,-12636,9112,-24026,25140.0,9666.0
11296,-18868,4932,4325,4790.0,-657.0
-2320,-7920,5400,20782,-7051.0,4855.0
10888,-27892,9936,23065,-31218.0,5948.0
1844,-23412,9440,-2118,-749.0,1002.0
-272,-6932,4368,22709,-10572.0,-2142.0
3052,-10060,172,-18051,21211.0,7486.0
724,-23060,-256,-18970,12959.0,-7845.0
-580,-9376,2932,18886,-20800.0,7063.0
12156,-23436,-3096,-5717,-447.0,2623.0
1436,-6516,3988,-22545,14976.0,-6465.0
-984,-32768,3800,-5105,12087.0,-6749.0
1140,-9116,9128,16592,-9719.0,8672.0
4476,-11880,-1112,20437,-17173.0,1009.0
5732,-3060,-928,-21226,-4183.0,-6470.0
32,-7608,9296,19250,-2466.0,11637.0
6240,-32768,7160,6197,-14563.0,2376.0
2620,-23488,-1764,-21818,10086.0,-15249.0
5496,-9960,5888,17971,5929.0,11819.0
1436,-13568,2876,21698,-24614.0,6995.0
-392,-9368,4928,-21252,18538.0,-6206.0
4356,-31352,4032,-4880,-1543.0,-7854.0
76,-4208,8332,20662,-5419.0,8134.0
4860,-24824,9948,15055,-30424.0,588.0
5064,-14680,720,-20895,26306.0,1811.0
5136,-29240,2756,5032,10564.0,-3336.0
1044,-6536,7228,21638,-11371.0,9866.0
11644,-25576,5916,13022,-24169.0,3833.0
1572,-10192,2844,-17949,23254.0,-1219.0
-96,-22396,828,-22387,18674.0,-5611.0
1752,-19868,8160,18718,-13707.0,1150.0
1208,-5808,4872,22585,-2973.0,3066.0
9292,-19440,1664,-8728,2853.0,5441.0
3540,-27208,-1872,-6709,8578.0,-8944.0
5240,-18744,7348,19447,-32768.0,11792.0
8116,-22124,4232,3453,7081.0,-4968.0
6096,-26392,10332,20737,-31982.0,7795.0
7064,-11140,2440,-12597,11477.0,1342.0
2188,-17448,1196,-32640,21765.0,-10079.0
7228,-21296,5204,5866,-5571.0,4650.0
5852,-23344,18064,18009,-31250.0,8214.0
-784,-17952,-572,-15144,32767.0,-1594.0
4612,-21660,13720,-7635,-10914.0,-3273.0
-764,-7396,1896,4620,2038.0,273.0
9724,-26820,6316,20869,-24287.0,7421.0
5324,-8864,-216,3973,-1238.0,4888.0
-1012,-18072,828,-15418,29016.0,-1238.0
3764,-23240,14804,-6923,-21494.0,-3813.0
-1196,-10196,588,-12370,19483.0,-10818.0
13152,-25016,4160,13999,-28731.0,7890.0
3228,-9700,1300,22434,10723.0,9174.0
1540,-15336,5612,21279,-10467.0,-1762.0
3116,-13016,12100,-17711,5764.0,-597.0
-3008,-14832,4268,-24943,9718.0,-13931.0
11936,-26304,-1940,3708,-16811.0,3432.0
2332,-6624,-2836,-6429,8498.0,-1714.0
3764,-22988,-728,-12265,14051.0,-8608.0
4472,-16452,4892,23858,-6867.0,17057.0
900,-13932,8748,26414,-20412.0,9206.0
4948,-9408,-1780,-28228,17375.0,-5499.0
-3276,-32404,14380,-17113,21863.0,-19704.0
3240,-12504,2640,12435,-4247.0,7762.0
3740,-8112,12808,23831,-14739.0,8023.0
11528,-19800,872,-5174,462.0,5330.0
3356,-9868,-5788,-20384,13601.0,-1009.0
3384,-10876,6732,22857,-14760.0,11963.0
5808,-23864,-6080,-10469,12025.0,4313.0
2944,-11416,1708,-20859,13339.0,-3652.0
-5548,-32768,7652,-6095,15641.0,-10944.0
5904,-14260,9564,15439,-19721.0,7381.0
7312,-18204,-300,-8915,20017.0,1622.0
3612,-30064,3252,-5747,-3253.0,-1769.0
184,-5944,2096,16874,10005.0,-1056.0
2528,-10348,11068,13475,-23175.0,11086.0
6256,-27948,3880,-3153,15793.0,-6278.0
-164,-6948,6696,17987,-10574.0,8593.0
3016,-12752,1184,4853,-4919.0,5850.0
-24,-7064,1172,-12857,10295.0,-11846.0
12684,-27892,3104,1576,-3028.0,794.0
7948,-27484,11128,11056,-18320.0,5101.0
3600,-7248,1804,-18396,4904.0,-3093.0
-4320,-16264,15016,15553,3882.0,9839.0
-2084,-13512,4144,12992,-24809.0,8850.0
8624,-24428,-3928,-6579,10142.0,-295.0
2376,-6276,1656,-21800,9220.0,-7353.0
-6352,-32768,-3344,2191,6802.0,-641.0
308,-11544,5500,20275,-7118.0,12267.0
9144,-19464,9460,14309,-19199.0,894.0
5140,-15672,4844,-17008,30311.0,3278.0
1780,-13744,-452,-24688,5812.0,-7882.0
8340,-18384,4372,6319,1803.0,450.0
-2736,-9400,2300,19630,-10408.0,4987.0
11856,-24892,-7024,7027,-28817.0,3255.0
1812,-10420,3728,-20723,21035.0,-1110.0
5268,-26800,-8792,-16897,575.0,-6864.0
184,-12812,1864,23900,-32768.0,12023.0
6260,-20548,4764,-1954,5499.0,-2027.0
-1696,-32768,4496,-22166,20737.0,-13324.0
360,-10008,6716,13263,-678.0,7207.0
