ax,ay,az,gx,gy,gz
10608,-18240,-2032,-10375,-10362.0,-4591
5104,-11684,-12748,-10494,7605.0,-1489
7616,-14480,-8740,10059,-9650.0,3627
6760,-14472,-1640,18429,12350.0,7086
-8384,-27572,26808,4931,8672.0,-4960
2864,-16768,8664,-17638,-2785.0,-1728
1776,-12436,2396,-1957,-4397.0,-765
2180,-3660,2040,1604,1847.0,-12053
2516,-20796,-6072,-3971,-1115.0,5478
1488,-13056,1780,3236,2241.0,3338
884,-1528,8040,5997,11188.0,5012
-6352,-15024,11664,16844,-6015.0,11337
3868,-17068,-776,-3310,-46.0,1198
3676,-15928,880,2259,3332.0,1808
-2440,-680,3836,11780,7914.0,1373
-2916,-11784,9320,7845,-10393.0,648
-2540,-24332,20168,-5412,15149.0,-2237
7304,-17536,4492,-9958,-18019.0,-6884
6176,-10736,-4716,-15714,-1368.0,-3144
7048,-13916,-7324,-5902,-4061.0,1064
7104,-12652,-5984,3515,3218.0,417
6492,-14036,-5572,11948,1834.0,2127
5352,-16996,3416,15933,7108.0,9214
-2424,-18796,15392,-5977,-6062.0,-2267
264,-11576,5024,-8126,-6457.0,-2351
-8,-18396,13028,-10596,-2164.0,-3645
1184,-10308,2684,-9069,-2182.0,-4599
1276,-8664,7484,-4769,13689.0,-2688
5124,-16628,-200,-2336,-5585.0,3686
3248,-15624,1800,1837,-717.0,889
4000,-15392,-32,3167,4082.0,2676
292,-9580,3880,7029,13150.0,3310
-1396,-4904,8684,6611,-2969.0,3341
-5320,-22960,13884,3515,759.0,-742
-1344,-19872,16980,-12812,-5603.0,-10785
9332,-14900,-1472,-12915,-16111.0,-1680
7504,-11952,-6140,-10125,-779.0,14
5792,-13388,-5712,5059,114.0,-75
5404,-24184,9132,14659,10104.0,7405
604,-18912,11884,-2016,4209.0,1982
1648,-16912,7944,-10752,-5322.0,-453
832,-13428,3176,-2917,-180.0,-3638
-316,-9100,5392,862,-14329.0,-4382
4888,-14520,2892,-398,-2469.0,-166
4440,-16244,1688,-998,5748.0,607
4704,-15664,1108,911,6228.0,723
3076,-9068,1452,9147,9402.0,942
-1708,-5060,10736,1488,21685.0,-1681
-316,-18768,17680,-700,-12735.0,730
1764,-19464,18504,-11883,-6095.0,-13216
-3024,-19752,19664,-8636,-7710.0,-5516
3472,-16584,8416,-11660,525.0,-4591
5500,-15928,-2516,-17637,-13990.0,-6312
7288,-13596,-7552,-4066,568.0,-2089
6276,-14232,-5408,5784,-873.0,3523
4608,-14112,-3320,16567,6462.0,3625
1312,-16720,13984,16725,14709.0,9798
-7084,-18504,18552,-3055,3650.0,5518
-1544,-15516,10836,-14496,-8688.0,-5910
-396,-11864,10536,-6809,4551.0,-4276
28,-3640,-2888,2882,-17113.0,-7258
3284,-12888,2104,-3653,-7936.0,181
4432,-18252,-372,1869,9637.0,2768
312,-9456,4852,5883,6629.0,555
-4212,-488,6968,6986,12092.0,5202
-4472,-23184,19068,7262,-3732.0,5207
-5496,-19812,23848,-14115,-10114.0,-6991
1540,-18384,10804,-16593,-4794.0,-8295
8160,-15040,-8988,-13144,-3539.0,561
7356,-12812,-5732,-3633,-1616.0,236
5228,-12492,-2732,16662,4956.0,5749
2316,-12508,7196,24886,9544.0,11436
-6912,-14100,21932,4106,8846.0,1943
-10848,-15340,22296,-16347,10278.0,-4159
-4100,-11440,7568,-23557,-6883.0,-8525
-6492,-18052,20856,-14473,1211.0,-8606
692,-11040,6864,-239,-16723.0,-3354
-336,-7560,176,2013,7168.0,3506
2436,-18796,1572,-3783,-2935.0,-259
1292,-13644,188,4265,5557.0,3108
-1536,-4012,3908,6731,1607.0,5580
-3100,-15228,11924,9542,-801.0,4597
-5692,-16640,17184,4377,-5324.0,-10992
1660,-19716,15248,-8065,-2718.0,-8550
5816,-9480,-1568,-19311,-7245.0,-7308
8428,-15520,-2120,-6217,481.0,133
6176,-13724,-6088,3394,1342.0,1387
-14264,-21884,20312,14747,2261.0,-15229
2924,-16232,15724,-14948,-8020.0,1146
8744,-15440,-548,-19353,-14418.0,-3402
7904,-14280,-4868,-15400,3897.0,-5106
7436,-13068,-5656,2542,6347.0,-262
5168,-15540,4568,23647,11058.0,9597
-6744,-18924,25940,1380,4919.0,1113
-4340,-22184,20168,-18841,6337.0,-5937
-552,-7160,6212,817,-23572.0,-88
1996,-14972,-3256,-4010,-3478.0,3711
4612,-16012,-2996,-309,5352.0,-2536
3140,-14216,8212,-1492,-102.0,809
3376,-13268,348,6058,7599.0,1638
2720,-15464,1076,810,1929.0,566
-4,-13036,3172,2022,15433.0,1358
-736,-2836,5340,8215,518.0,4
-2084,-16992,11976,11117,-9028.0,1213
-2976,-20748,20024,-5962,628.0,-7570
6388,-19452,7464,-12049,-16863.0,-5045
6272,-8284,-8148,-17808,-7266.0,-5844
9016,-14628,-3760,-5306,1211.0,4845
6440,-12988,-5712,7208,7120.0,1397
5528,-14020,-2640,17846,978.0,6565
3668,-7640,8816,21879,6731.0,15233
-11756,-14960,26804,-6287,2779.0,-61
7308,-13272,-7444,-6307,-4560.0,-1851
6648,-14104,-5888,4644,-2809.0,1574
5548,-13352,-1556,14794,4935.0,3944
1348,-13112,9200,20875,7810.0,9939
-7632,-16724,22956,-6824,4809.0,2414
-5296,-17868,18444,-16217,-4198.0,-16012
3312,-8748,3064,-10819,2496.0,-3704
2020,-7604,-1300,-929,-10228.0,-4828
2572,-10368,-660,1876,-3212.0,-321
4628,-16788,5084,-4534,2396.0,1803
4768,-16088,-852,-276,6350.0,1272
2804,-14248,2596,3651,2528.0,2709
-1952,-13264,2868,1721,-1916.0,-4896
336,-5592,6424,-2484,-14136.0,136
2412,-18420,4936,-4090,4398.0,-4171
3096,-14380,-648,-1865,-1079.0,602
1516,-12816,4672,7411,11302.0,-192
-2012,-56,5908,10421,2895.0,6241
-7420,-14640,23604,7332,-7000.0,-8711
2000,-17660,11144,-16567,-8582.0,-3803
6692,-12796,1756,-17208,-14551.0,-8115
9448,-11560,-7732,-7958,-4071.0,-1687
7076,-14156,-5100,867,1920.0,693
7784,-14444,-4388,6411,697.0,4850
6676,-14752,-5496,-4861,-312.0,2135
7484,-13880,-5048,4205,-1500.0,1926
5896,-13384,-3048,14210,1104.0,5373
5184,-10120,-1672,23516,2283.0,6484
-9660,-7688,29836,10962,13419.0,5400
-15080,-21164,21968,-10770,5518.0,-6568
-4336,-13752,12784,-11216,5015.0,-7896
-1160,-7340,1900,-9295,-8757.0,-5574
1768,-8924,-2784,-2897,-10897.0,1818
2436,-16908,-4956,7250,-1354.0,1973
1336,-9140,3628,10276,5281.0,3852
-5184,-2364,9040,14158,15433.0,6163
-10848,-15256,21516,-2028,4843.0,2022
1776,-10632,628,8330,9113.0,1960
-1208,632,7336,10082,10183.0,4086
-4120,-17580,24240,-13659,-216.0,-6808
5816,-20616,7504,-21707,-10217.0,-7044
6468,-6696,-1616,-15632,491.0,-8109
8676,-12380,-7924,-3740,3212.0,297
8528,-13936,-6032,4986,2334.0,1445
7220,-13984,-4376,13510,-3835.0,6007
5528,-12484,-288,20961,1209.0,6678
-16156,-17728,29904,14110,29858.0,9105
-10792,-19804,19376,-13351,716.0,-3690
-3672,-8864,8464,-17231,-1869.0,-6929
4532,-14256,6892,17805,16414.0,7096
-5696,-15100,17940,-2334,3646.0,764
-4768,-16100,14532,-7065,-562.0,-10190
-436,-11592,10096,-3000,-13960.0,-2623
1932,-7376,2824,-8237,-6036.0,-1181
4364,-8824,3260,-10168,-5780.0,1416
4352,-14588,-36,-2774,13982.0,724
2868,-17424,-2172,1076,1758.0,1448
1772,-14632,-264,4512,7066.0,2040
-32,-4132,5784,13056,8183.0,4618
-9448,-2832,10172,16303,7270.0,17979
-11824,-13560,14192,2600,-10087.0,-9717
3548,-16892,1344,-183,5021.0,1388
2036,-14996,100,2762,8997.0,1797
-1756,-5576,4116,6310,13788.0,3465
-7324,-13768,10824,11531,-2253.0,-157
-7300,-19908,20328,3255,3247.0,-4892
4344,-18044,13048,-16126,-12585.0,-6304
8128,-7832,-4644,-14107,-8884.0,-5839
9348,-14372,-1912,-12943,4219.0,1289
7080,-12772,-10544,-1864,2508.0,-2691
7616,-13932,-3840,6350,-5321.0,3936
5624,-14884,-3224,11723,3644.0,3123
4544,-16684,2708,16288,-4895.0,5330
10160,-16948,-4264,-6094,-7316.0,1598
6376,-12536,-6360,2737,10207.0,-223
7176,-15396,-4284,10418,-2969.0,4073
4180,-12320,2880,12050,4746.0,5756
-3988,-21240,12828,9041,8134.0,6567
-512,-22012,11404,-3448,1022.0,3218
24,-14372,9872,-6086,-10626.0,-3008
80,-11224,4048,-4179,1256.0,-2302
2480,-6308,5960,-7436,-2744.0,-994
5256,-19752,-3388,-1587,5400.0,1906
2528,-17104,-944,726,-1185.0,2420
-3364,-13048,12284,16450,-6584.0,2393
1212,-9212,1968,-7221,-5721.0,1617
4520,-17152,628,-2572,1867.0,-445
1956,-15876,1256,750,8893.0,959
-372,-3180,-696,15127,5186.0,5574
-5128,-18588,14436,12521,-1414.0,3370
-4268,-22084,19148,-8972,4894.0,-5123
1464,-21432,9348,-13313,-5614.0,-6861
3816,-11636,-288,-15898,-1820.0,-8522
7644,-15364,-6996,-4226,-10114.0,2745
5896,-13980,-6980,1995,3674.0,-513
5716,-15048,-5528,9616,-817.0,4219
1256,-12932,5456,24499,7949.0,13327
5648,-11892,-6868,-15668,-18129.0,-2900
9356,-12364,-11052,-5640,708.0,-1329
8168,-13524,-8404,1328,-1545.0,-625
7252,-14020,-9500,4356,-714.0,1237
6616,-11860,-4556,14738,7078.0,5933
2580,-19940,7396,15541,9042.0,9128
-1352,-18600,12816,-7758,-2064.0,-5892
1176,-5800,6172,499,5139.0,-518
2504,-6628,3944,-2197,-4879.0,-111
3016,-23820,240,-8082,-4789.0,2107
3028,-14564,3652,-2635,2234.0,-2893
2376,-15860,2612,1437,6870.0,1417
532,-11576,4016,6706,3452.0,3154
4428,-14108,816,-4432,2281.0,-773
2908,-16268,4872,-2016,4723.0,-784
3140,-15972,-324,4526,1002.0,2673
-1264,-8768,1604,9789,5916.0,3963
-1532,-6804,8096,5726,1648.0,4302
-8368,-13548,16528,5679,17836.0,848
-1028,-15236,22368,-10789,-24661.0,-13496
5908,-17624,828,-16598,-7592.0,-3687
9352,-10444,-2452,-13346,-5586.0,-10385
9584,-11536,-7992,-121,3474.0,1578
9176,-12604,-5956,8393,-1473.0,4668
9248,-13716,-340,16924,3581.0,2055
32,-17212,17868,15907,19237.0,5321
7588,-12744,-8436,10219,-1506.0,306
6740,-12464,-1072,16436,6616.0,5850
3948,-10572,7788,19072,7489.0,11301
-4600,-15608,11040,252,-9313.0,9532
-4696,-13024,12028,-9728,-3141.0,-8572
-4352,-14140,8648,-4079,-2997.0,-4443
-1000,-5388,5240,-5881,-14949.0,-6849
2724,-9088,-1508,-6825,-1726.0,-2810
5404,-19152,-1680,-660,-2706.0,4579
2116,-17612,2552,1323,6856.0,-1997
-524,-10260,2028,7649,14152.0,3930
-1412,124,7424,10992,3587.0,6619
-10756,-14552,9644,10385,2914.0,-2
-3340,2536,10840,13497,14393.0,4184
-6924,-20964,18964,10353,-6523.0,9940
-6888,-7948,21444,-6315,-7683.0,-10553
-44,-17428,17088,-19345,3318.0,-13342
6036,-7548,-4588,-21818,-26883.0,-10347
5648,-15728,-9608,-9712,8920.0,-822
5412,-14464,-10320,5412,-2060.0,1391
6056,-12780,-6728,19731,-1007.0,4677
3288,-16396,6388,20826,10197.0,6947
-3148,-14088,20016,-1733,-4963.0,2567
2224,-12280,7564,-23834,-2056.0,-13461
2920,-9204,-4508,-2353,-10813.0,-894
-9340,-19420,16176,1390,-6547.0,3184
-3196,-12384,19624,202,-12728.0,-6211
-424,-6844,4692,-6129,-13983.0,2817
3612,-4212,-68,-11558,-5453.0,1750
2804,-19436,6156,-9416,14114.0,2948
2112,-18392,3112,-2806,4628.0,995
-516,-13532,3076,9163,14411.0,1613
-5076,-9512,9900,9874,-3969.0,6821
-18108,-16456,20188,-3151,873.0,-5214
-11196,-13740,14368,-12213,-3183.0,-19944
3016,-15060,5900,-15161,-7885.0,-16049
7400,-7352,-6696,-15551,-9071.0,-11083
-17056,-20836,28032,4791,12839.0,-14182
7396,-16244,5100,-19918,-18667.0,-11636
5092,-8012,-7836,-21554,5303.0,-8664
10736,-5540,-6756,961,3396.0,-4879
7464,-10284,-6796,16319,6103.0,7874
444,-13440,12064,28979,15051.0,7468
-8748,-24000,21760,-8556,6368.0,9794
-4436,-18892,8496,-12603,-5007.0,-5315
-112,-7568,2876,-3407,-126.0,-7643
1484,-9036,-1020,312,-16543.0,2830
1844,-16152,24,-3856,20347.0,-1623
4036,-14144,1552,5188,-4289.0,4474
1580,-9280,3432,-1778,-16059.0,-1227
3260,-19124,3528,-5307,4228.0,2695
2008,-15212,1188,-1131,2435.0,-1095
232,-16036,804,-599,10575.0,3198
248,-11984,564,10986,1797.0,2910
-4288,-4524,8200,10552,9074.0,4957
-4956,-15784,15276,5994,-3545.0,11036
-11632,-13332,24688,-3310,-1037.0,-13228
-1360,-18524,13212,-19869,-1198.0,-11867
8456,-6568,-1224,-16616,-20915.0,-5888
9152,-14388,-2568,-10932,5572.0,-4818
8404,-11844,-8292,-1552,-7925.0,2312
-4104,-14780,20088,2475,1902.0,13872
1596,-14428,13100,-14665,-4302.0,-10203
3336,-13780,3700,-14514,3028.0,-12557
7964,-15544,-2356,-8607,-12699.0,-5323
8764,-12204,-6780,262,3027.0,347
9124,-12904,-4692,11529,335.0,4440
5080,-14512,4824,16767,14198.0,12935
-4544,-16676,15112,-2109,-7200.0,1869
-4380,-17336,16508,-10455,-3494.0,-4191
1240,-9424,2216,-5315,-6585.0,-2312
2488,-7764,4248,-8079,-2838.0,111
3168,-19132,2668,-5086,6357.0,-2238
-3124,-20892,18524,-1110,-5999.0,-6276
192,-5972,10780,-7286,4949.0,734
1480,-9368,2660,-6356,-14968.0,3297
1792,-15228,1584,-9453,661.0,-12
1896,-14528,7040,-308,5155.0,-918
1440,-14268,1044,4634,5567.0,5995
-404,-2300,2832,13802,13737.0,3939
-8044,-5936,9316,9909,4749.0,8473
-18996,-19776,30028,-3519,22420.0,-10146
60,-10036,8088,-25730,-14340.0,-8977
5920,-14204,1940,-17889,-14631.0,-4962
6996,-10476,-7020,-14535,10265.0,-4641
-12416,-16232,27852,-6164,3224.0,-14526
1116,-19044,13064,-20179,-11243.0,-4918
2360,-11384,3024,-12431,-599.0,-11265
7228,-14172,-2168,-16108,-2763.0,-8271
8548,-9520,-7312,-1597,-5392.0,-1320
9736,-10352,-10332,4761,-802.0,4293
7152,-8620,-5244,19101,2671.0,8071
6676,-14320,8560,16745,5767.0,17369
-10072,-22832,17288,-1307,8300.0,8613
-10412,-15628,12648,-15132,-13180.0,-16134
-1940,-8524,-2152,-13823,-29135.0,-19534
1976,-5940,5356,-1049,-1882.0,-4305
6252,-8548,-1432,22083,10510.0,14425
-8100,-11156,21700,32767,-4500.0,15376
-9096,-12864,22488,-4203,3030.0,5396
-13840,-23916,16476,-18101,-1526.0,-5674
-4796,-4908,10804,-2815,-33.0,-12229
-2364,-7592,1036,-2375,,5
3352,-14152,1828,-5336,2969.0,1386
2432,-13776,4244,-5867,9692.0,-1798
2008,-12596,396,3714,6894.0,4570
348,-6308,4840,11213,2091.0,9475
-4736,-6232,11828,10380,6239.0,6387
-18628,-15236,29616,20351,-3306.0,-4494
2028,-16680,-68,4950,4002.0,3599
-932,-5024,1872,13210,9228.0,7743
-2844,-9100,13880,5369,10456.0,7368
-11056,-10464,19088,8264,7268.0,7193
-5336,-8268,16268,-19918,8615.0,-10268
2996,-22328,6468,-16425,-10440.0,-8815
7820,-15672,-8188,-9219,-4268.0,-3402
7452,-10704,-5552,565,2509.0,1123
6856,-13376,-10976,5406,-2359.0,869
6616,-12144,-5108,13007,4187.0,5154
3568,-11148,2232,17602,8489.0,6375
-3184,-17708,16704,13817,970.0,10083
7804,-14428,-4936,-9224,-4311.0,-2244
9816,-9856,-4392,-3322,-3158.0,1688
9392,-11740,-9456,3337,-1176.0,1862
7664,-12068,-5868,11254,1017.0,3455
6336,-14812,-1224,19143,4261.0,11136
-9120,-21112,22208,-12368,-4759.0,4687
-3808,-12848,8704,-8206,9639.0,-1753
32,-14920,8492,582,-9585.0,2593
-1336,-9176,1900,-818,-23542.0,-4704
1684,-16396,3304,-1438,-1118.0,-1500
3444,-16500,1124,-3923,-381.0,502
2388,-14152,3496,3874,10249.0,2037
820,-9196,2436,-6943,-2452.0,-1947
2604,-19448,1008,-6783,8130.0,-3819
3016,-16504,1952,-1998,1257.0,-658
1480,-15136,1596,4885,6054.0,3823
1304,-6628,3232,11548,623.0,4485
-15748,-220,16024,17140,27556.0,4860
-10012,-12992,12396,8558,9772.0,-4640
-11868,-11376,15196,-20649,-13802.0,-9417
3372,-16484,9512,-19237,-6086.0,-16650
7132,-7332,-2304,-21594,1351.0,-17102
11248,-9168,-2824,-3365,-5790.0,2861
10508,-9552,-9044,6735,1706.0,1481
-13656,-15764,22248,-16985,-23518.0,-9714
2344,-19684,10068,-15475,-4328.0,-10308
260,-228,-388,-20322,-21332.0,-4209
3880,-15376,-10680,-8590,9005.0,948
5736,-12504,-11684,-413,378.0,1979
5020,-11352,-9404,11815,2309.0,1480
4408,-13464,-768,19473,6069.0,3741
2664,-8940,20456,32767,1382.0,5265
-11088,-13068,24704,-4936,14679.0,4252
-6384,-13064,12360,-12935,-2352.0,-3748
-9960,-14224,14980,-13758,-3994.0,-22235
-2512,-9196,2264,2016,-32768.0,-17350
2708,-10292,2040,-3933,-1988.0,-842
-1444,-15368,23528,6429,15272.0,8254
-10652,-19524,20636,-10086,7197.0,3610
-1200,-12272,7508,-18945,-7157.0,-14217
-284,-12100,16036,-326,1700.0,-3516
636,-11024,4536,-2183,-8151.0,-3745
2888,-15484,2500,-5433,-9977.0,840
3888,-17032,-476,-788,8116.0,-1723
2892,-14808,2764,2572,4185.0,2476
2288,-7840,1752,14852,1617.0,9191
-8964,-4600,11448,11308,21341.0,4227
-9480,-14824,15060,9019,-6013.0,10143
-14232,-5140,30316,-7246,-27503.0,-20
-3796,-7732,4236,-11792,8725.0,-6395
-760,-8336,8004,-875,-14845.0,-1647
612,-15068,-4228,-3706,-12650.0,-2758
2060,-17172,2948,-2258,5667.0,1253
3320,-16532,-3856,3019,-4290.0,993
1888,-9188,2824,4813,11522.0,6323
-2912,236,4336,19275,-930.0,9985
-8108,-4924,32767,8721,-8062.0,-5747
-7656,-5700,16524,-27830,-7996.0,-10929
7776,-24776,4320,-23747,-7408.0,-8042
5824,-5448,-1252,-18636,2819.0,-16243
1900,-16680,2028,-6297,2.0,-147
2300,-16428,256,285,3417.0,386
2252,-14308,4060,4396,4627.0,2192
92,-10816,2252,11139,6453.0,5555
-5132,-3372,11908,16647,14816.0,7325
-11056,-9244,21028,20855,11220.0,5887
-14312,-5244,25332,-8942,-27608.0,-7771
6744,-13480,12708,-23782,-1082.0,-375
2012,-11964,5088,-19279,-817.0,-14400
8736,-15820,-5452,-15122,-8995.0,-1045
7460,-12060,-3124,-6282,9655.0,-3145
