ax,ay,az,gx,gy,gz
2896,-22764,-8552,-10419,-8396,-636
1280,-12588,-4796,-2348,72,-1692
1280,-10864,-1936,1137,21569,-742
2592,-12796,4528,1848,8354,-3720
2452,-15256,9544,20,5749,2472
2616,-16140,2900,599,-2737,2842
1204,-16492,10040,106,-11287,3307
7208,-8356,20068,-3585,-10867,-20844
9500,2552,9672,-7170,-18795,-915
8588,-8436,-17160,-10168,-14901,5406
12552,-10948,-19476,-588,-5368,13642
488,-15144,-7180,12925,23151,19293
748,-21900,-7932,859,-23382,6045
3052,-10056,3776,-722,12805,-5421
2592,-11200,2296,-1028,11675,-3163
4816,-14596,3912,-1186,12779,6658
2720,-15408,14136,2711,-3943,5222
1188,-17080,6972,3275,-7796,3740
-284,-11984,8148,-8562,-15137,5387
5852,-4192,15168,2955,-13547,-12101
9224,-5180,12016,-7463,-13570,-7834
12388,-6624,-1172,-9016,-27365,2112
13536,-5608,-10612,-2791,-11382,8704
11268,-13632,-13288,4656,9473,18840
-4736,-15232,-1992,6327,32767,18742
240,-14860,-4104,-1689,9716,-6763
976,-8756,3496,-1350,18620,-6758
5500,-14364,4780,-795,4552,1163
3036,-15804,7820,-692,9796,4682
3484,-16580,7052,-119,-1549,-965
2268,-14320,11400,-1654,-12412,850
5820,-6916,15028,505,-6616,-7186
8036,-5016,17584,-1882,-12715,-9529
10028,1024,11880,-1240,-14202,-3929
16320,-7792,-1460,-1714,-20281,7805
13600,-14208,-15072,-5934,2009,14586
6792,-15892,-11480,6759,8079,20877
7560,-20032,13256,8804,6515,15331
1440,-9708,2572,-82,20032,-6359
3560,-14048,1104,-3882,14627,-4090
3608,-12020,3468,-2234,13295,-3048
5524,-15304,12220,-920,4513,3746
3928,-15520,6160,238,-840,3042
7112,-8396,20332,4412,-7043,-12274
7404,-2992,9488,-781,-2797,-8087
10352,-2872,18604,-6213,-2081,1367
11064,864,9172,-3097,-19228,-8832
15396,-6500,-2876,-1125,-24583,2920
13776,-15800,-22720,-7275,-1992,14038
8444,-16556,-7600,10616,14700,24627
12336,-27240,6792,794,770,13210
1216,-10120,-2080,-3067,17053,-677
2104,-10144,7512,183,16772,-3562
2944,-15640,10992,2189,8457,5565
1664,-14760,6224,-1135,2501,-78
636,-9420,18412,-6913,5633,-4003
2304,-11772,19960,51,-4872,-7714
3712,-9920,11100,-9687,-9253,-16969
10216,-9436,11224,-240,-19303,-14550
11272,-8360,-2480,-5623,-16240,-2624
11996,-13768,-23332,-2549,-2744,16359
4516,-17364,-5524,12378,8283,18955
13600,-22268,-924,-2763,-8975,9986
-804,-13036,-2144,2650,30038,-6170
1960,-9164,2384,655,15436,-3420
712,-14192,10148,962,12921,3044
4220,-16800,4412,-2667,-584,599
612,-10932,17428,3670,1884,-5352
2132,-9016,14596,-2257,-989,-5232
4976,-7760,16192,751,-4663,-9287
7960,-4680,15320,1680,-10607,-9231
9708,-3328,14540,2172,-12667,-5285
12056,-1032,9976,-6046,-31280,835
17336,-3604,-5864,-8425,-20366,11970
11236,-13760,-9396,2520,7474,6079
10036,-17784,-12608,3906,-1671,18889
-1808,-13180,-1316,7117,28359,16510
1492,-14556,-5432,6132,9940,-6755
3136,-9860,4380,3487,19543,-6075
772,-8184,8784,5890,11856,-16921
1416,-9792,17828,-1173,11188,-5453
3560,-9612,12920,-5324,-8769,-6213
5748,-9348,14960,-5596,5630,-4087
6824,-11820,14740,6701,-5518,-4391
7880,-8524,13524,7386,-9498,-6047
11200,-4792,13940,4084,-7051,-6321
10016,-708,9632,4487,-11942,-1296
11564,-6460,3468,-7319,-22570,7207
9200,-6716,-12844,-3432,-20897,14844
12840,-14380,-10892,1353,-939,16343
-4864,-10792,2716,10223,32767,21736
5452,-17432,-420,19522,5126,-6304
7980,-2956,14220,-4177,2005,10754
1396,-12008,19104,8778,15429,-2903
44,-9916,10212,872,654,-4383
1704,-12092,16216,-1754,-20,-3331
3116,-9956,15648,4681,-6822,-12392
6532,-5320,15916,4865,-11698,-7785
8476,-2848,12196,-237,-9787,-1322
10332,-6168,3444,-3020,-14434,-8750
12972,-4452,-1760,-7067,-24875,5680
17260,-8540,-15492,-2087,-7197,7805
10028,-12916,-14196,2905,7921,19405
7572,-17896,-432,17375,12512,-12779
3380,2024,6380,2219,-10970,12298
5432,-10604,23132,2737,8755,769
2344,-7460,12260,1517,-2516,-403
1844,-11300,16048,-4524,2999,-1248
2680,-11596,12588,-2892,-369,332
8724,-11552,21576,6483,-13859,-10972
7112,-2624,7728,2089,10638,-20275
12612,-3124,12628,-7324,-27355,-2963
16452,-3052,2748,-2386,-15733,4283
13684,-13800,-16220,2222,-8994,11895
11360,-14616,-11364,-3364,-3218,19902
-2124,-12980,-7436,14410,-789,-7791
996,-16624,-5828,12298,-638,-9525
3676,-20208,9412,16766,25191,-6173
456,-10276,7636,13762,-730,-8551
2624,-9568,14912,5637,6707,-3462
5820,-5648,20492,5441,-10494,-4986
6276,-4488,15996,2264,808,-9775
6664,1140,18408,4177,-8746,-437
9864,-5004,12064,-2391,-5039,-961
10628,-344,12248,-4474,-10145,-3004
11028,660,14380,-5878,-16084,-2698
16088,-4500,5020,-1398,-12155,-126
13036,-14740,-17540,3075,-8131,9543
564,-15196,-9892,14286,9385,-10994
184,-16480,15896,21345,22168,776
-1532,-12264,6908,14620,8953,-14354
3248,-8240,16080,5299,10976,-6971
5324,-7568,15056,4588,-11739,-4616
6412,-4284,16996,2580,544,-6653
8048,-5044,14692,1162,-6105,1451
10560,-2596,15504,-5152,-9655,-4751
9084,736,14376,-4138,-12293,-2901
15792,-1792,8468,-4440,-27507,1473
12696,-12508,-21784,911,-6438,12335
9108,-18472,-11244,3572,10778,19901
3644,-16912,5456,23701,13345,-8633
4236,-7228,4152,6130,3003,-4103
1508,-6408,18832,4208,2571,-11004
1872,-6248,18620,7222,-2289,-10306
3576,-3480,15872,1897,-5826,-10387
7148,-1848,13368,-1615,-5936,267
8564,-1984,17000,-3234,-8287,4551
11012,-6560,13028,-5721,-10596,-7279
15828,-4364,13528,-9282,-30461,-2074
14456,-10308,-11436,-19,-5043,5674
12580,-14984,-9084,2792,9323,15794
2688,-17944,-2152,2252,13455,23386
-664,-11760,4044,3084,4882,-6727
4108,-10948,17768,-674,9201,-3128
1628,-10600,12392,3309,487,-5016
3808,-9788,16604,4025,-1699,-8096
6132,-5356,18860,5149,-552,-10388
7420,-2732,14900,3017,-12843,-866
10980,-4028,12240,-4700,-10824,-9953
17784,-5344,6804,40,-23900,8195
12508,-15536,-19620,1486,-22277,15312
8116,-17108,-9160,1628,5465,21744
1676,-20424,2532,2784,32767,15641
336,-16532,-6568,-811,5923,-4922
2440,-11728,2716,-3309,10861,-2859
4620,-6448,21448,4345,11341,-15614
1344,-672,13912,3156,-32103,-1204
9744,-5284,12728,-5445,11783,-6276
13312,-3744,7536,-6336,-10563,-2364
13740,-3772,7652,-1945,-21735,3372
11580,-6040,-12536,4401,-28521,12275
12924,-13320,-14360,-1504,4444,20272
2960,-18884,-6088,3238,19637,18946
1584,-14364,-6148,1164,2140,8921
392,-9256,7508,3672,17492,-5643
1976,-13108,4908,3807,11816,-1225
376,-16596,8036,-1088,11162,-6031
5236,-13712,7876,-4139,-2636,-1182
6804,-6028,17264,5621,-17095,-5804
7708,-3452,12804,-3034,-4865,-10719
14104,-7480,10020,-4710,-8389,-5362
11324,-6008,2868,5786,-23564,918
12916,-7344,-8188,-2556,-20702,11587
11480,-13512,-15232,-2649,1924,10308
2424,-14428,-15584,2307,13931,25751
12776,-20160,24940,-9,23798,11670
2528,-7188,3100,4285,22937,-9688
2152,-12620,2744,-2038,11391,-5050
5052,-15000,10476,-6522,12863,-3418
4464,-16604,7360,-1719,1440,276
2752,-14744,8916,-3838,-4361,3943
11564,-140,14620,263,-13047,1522
10868,2372,11108,-4077,-20636,-1341
14924,-7884,-8512,-5915,-18122,9931
14252,-13468,-15008,2560,-2012,10503
8464,-14804,-9972,1663,10809,19344
308,-21212,2188,7815,27919,11677
3060,-12144,-3708,3487,21809,-698
688,-11292,2644,-2431,18130,-4740
1584,-13444,7304,-3158,17359,-2849
4396,-13728,7800,-560,738,126
3468,-16192,8852,-440,-8772,3674
2828,-11848,4716,-4060,-18979,1507
9820,-2160,17616,-4901,-13818,243
10704,-468,15532,-6622,-15439,-6295
16528,-6000,1816,1403,-17438,2819
11008,-13480,-29396,304,-10858,13037
7340,-17348,-6248,4150,14678,18572
15516,-21392,14068,-971,1921,12273
-760,-9840,-1536,-1762,31204,-10561
1656,-9304,7048,32,15014,-3244
3268,-13416,7356,829,12350,-1044
3856,-15012,9324,-4667,2095,-2688
3292,-15520,7316,-3006,1035,2213
2552,-16104,6620,-1481,-6366,1921
764,-15800,4472,1328,-12223,3473
6976,-4592,9068,-418,-16151,-9995
13320,-10884,-10556,-8937,-31507,11903
11884,-10400,-10384,-5062,-8316,10366
7116,-15400,-10820,1150,15453,20945
1372,-18372,8968,4594,28238,15757
1908,-12540,-9644,1308,18232,-2683
2224,-10188,952,-1658,6859,-4401
6040,-14736,7880,-2098,7229,-2683
4720,-13180,7076,-646,7891,-580
3748,-15864,7220,-596,-5771,6624
1860,-17488,6744,1994,-10177,4788
-236,-9452,4000,-9997,-17913,5664
8936,-4012,16380,464,-13894,-1261
11012,-1184,13324,-4476,-17130,-1668
17456,-5664,-88,-184,-12831,4989
12072,-11992,-16372,-7649,-4280,14528
10040,-13216,-4448,3622,6365,15416
-6748,-21400,-5288,6317,31320,16369
2236,-12176,-5512,115,4534,-8564
4384,-9104,2944,307,16274,-7458
3196,-10536,5124,-1968,18646,-1705
6012,-19748,6484,888,960,3888
4256,-13560,6672,-2659,2020,-3707
5024,-13756,8172,-3234,-10625,1418
7272,-40,18220,-77,-17191,-7342
14296,-4048,14056,-3345,-14621,-2640
19384,-9572,-5144,-3809,-18157,4283
12064,-16464,-10676,-1635,-1155,10041
11132,-13184,-8540,1916,7047,18124
8840,-21852,648,1563,19360,13384
1204,-9172,-13104,-5042,21921,-6587
1540,-7524,2864,-5459,22382,-3927
4292,-13612,6944,-1132,13009,800
5360,-15472,5268,-1877,879,5954
4692,-16972,4840,1481,-6508,3543
3260,-12944,7832,1451,-10978,1785
8648,-6228,19020,-699,-24558,-12453
9576,1000,9452,-4577,-7592,-10608
12320,-12020,-9392,-507,-20312,4088
11348,-9564,-10276,-3769,-7801,9971
12940,-13388,-10384,2023,2904,12889
3972,-17244,-13584,1250,9000,22343
1764,-19536,17116,912,20588,15311
-772,-11880,-6020,2959,16248,-9828
-1232,-12724,6868,4581,22026,-7545
2108,-15744,1612,1633,5173,-1071
3832,-13556,9484,-744,1354,-293
3400,-14184,7636,-1701,-6604,2814
2260,-12616,5352,-5612,-12092,4584
10408,-8216,2232,-125,-25339,-7654
11996,-9504,-20080,-7231,-23230,16300
11480,-10188,-9004,788,-1332,14725
3408,-20656,-7572,9979,17714,21415
4260,-19380,-12236,2531,-13406,6410
1164,-7760,2136,-1431,12198,-5065
2848,-10544,2640,1538,13525,-1438
4780,-17532,8992,-287,8094,3611
2012,-17420,3356,-1522,-4342,1643
4120,-14768,6916,-2749,-9171,-70
-1116,-9604,4740,-5945,-26484,9928
-8188,-16476,-15140,-3276,-4907,11249
11632,-1176,9960,-679,-24827,2018
14892,-8948,-5064,-3330,-25642,9521
11104,-12304,-8824,-1145,-7107,9700
8068,-10912,-11612,1698,-4017,14961
-236,-19144,-15356,-2967,10030,25620
-5192,-16404,1612,9695,26063,12833
-2124,-10664,-10016,1691,28822,-10816
1816,-9860,3068,1173,24062,-2866
4200,-12848,6640,-2524,12436,-1144
3732,-18084,9376,-941,6269,3858
5200,-16220,3972,198,-6775,-739
4380,-13220,6528,-1342,-11908,465
188,-10128,3040,-6514,-27120,11146
11120,-4424,8668,-1196,-7213,-9019
13260,-9192,-6908,-5487,-23580,9351
14016,-8428,-6876,-1554,-4450,10156
10572,-14300,-11212,2191,3824,13947
3224,-20636,-4364,5906,15359,20276
8944,-21656,2400,1401,-7087,16844
-5740,-12224,-2916,324,23071,-11953
-936,-12124,5476,2641,18616,-3121
928,-13668,13532,7168,7159,1394
1564,-14192,7996,-1877,1089,-3131
2264,-14992,7312,-4848,-4598,1332
3144,-14428,7872,-6047,-5268,-1208
1396,-13140,7032,-4866,-19425,4964
15848,-9652,-4808,-3845,545,8497
10240,-12704,-9600,1154,1250,3326
10476,-15344,-10304,-1812,-8358,13264
-2576,-21248,-7632,631,32258,24243
1656,-15392,-6112,7388,-15135,2290
-1820,-7056,-1104,4668,28348,-7364
2340,-12828,10288,2528,10073,124
3268,-14988,9108,994,3510,118
3908,-15332,6840,-5740,-116,-891
3940,-15808,8400,-5331,-2905,180
4132,-12700,8548,-3713,-15901,3009
-2936,-13780,-1576,-5241,-24211,6985
112,-16984,2928,-7090,9573,3826
15872,-6820,-1856,-3686,-16474,8471
13168,-13504,-10284,-2956,1674,10539
7984,-12076,-7816,334,1750,15491
-2512,-19268,-7760,4935,19667,21759
-5288,-17232,-21760,6689,-8930,-15918
2480,-8780,2244,-649,21663,-7520
4896,-12136,10536,4473,18425,-6276
4916,-12340,5512,-3130,9360,783
4552,-17188,8272,-4289,-5376,4330
4112,-13584,7244,-4572,-6678,-637
260,-12248,3464,-4248,-19977,3777
-7008,-13684,-10508,3469,-13211,5791
5208,-18200,4144,-15426,5639,4676
12184,-12092,-17896,1461,-2401,7830
8484,-10488,-11324,552,318,12233
5416,-14396,-13976,2583,8333,18805
-2900,-17400,3292,8033,30106,18540
-2224,-11536,-6692,2849,29508,-12507
-140,-10600,4712,1053,24822,-3947
3016,-12332,11592,3917,8865,-4472
4064,-13556,9896,-2132,1453,172
4236,-15968,9056,-5457,-2918,69
2572,-14360,9432,-5213,-12825,-866
356,-9128,5000,-4795,-25419,2873
-13084,-9312,-19480,4696,-23021,12657
564,-15196,-9892,14286,9385,-10994
184,-16480,15896,21345,22168,776
-1532,-12264,6908,14620,8953,-14354
3248,-8240,16080,5299,10976,-6971
5324,-7568,15056,4588,-11739,-4616
6412,-4284,16996,2580,544,-6653
8048,-5044,14692,1162,-6105,1451
10560,-2596,15504,-5152,-9655,-4751
9084,736,14376,-4138,-12293,-2901
15792,-1792,8468,-4440,-27507,1473
12696,-12508,-21784,911,-6438,12335
9108,-18472,-11244,3572,10778,19901
3644,-16912,5456,23701,13345,-8633
4236,-7228,4152,6130,3003,-4103
1508,-6408,18832,4208,2571,-11004
1872,-6248,18620,7222,-2289,-10306
3576,-3480,15872,1897,-5826,-10387
7148,-1848,13368,-1615,-5936,267
8564,-1984,17000,-3234,-8287,4551
11012,-6560,13028,-5721,-10596,-7279
15828,-4364,13528,-9282,-30461,-2074
14456,-10308,-11436,-19,-5043,5674
12580,-14984,-9084,2792,9323,15794
2688,-17944,-2152,2252,13455,23386
-664,-11760,4044,3084,4882,-6727
4108,-10948,17768,-674,9201,-3128
1628,-10600,12392,3309,487,-5016
3808,-9788,16604,4025,-1699,-8096
6132,-5356,18860,5149,-552,-10388
7420,-2732,14900,3017,-12843,-866
10980,-4028,12240,-4700,-10824,-9953
17784,-5344,6804,40,-23900,8195
12508,-15536,-19620,1486,-22277,15312
8116,-17108,-9160,1628,5465,21744
1676,-20424,2532,2784,32767,15641
336,-16532,-6568,-811,5923,-4922
2440,-11728,2716,-3309,10861,-2859
4620,-6448,21448,4345,11341,-15614
1344,-672,13912,3156,-32103,-1204
9744,-5284,12728,-5445,11783,-6276
13312,-3744,7536,-6336,-10563,-2364
13740,-3772,7652,-1945,-21735,3372
11580,-6040,-12536,4401,-28521,12275
12924,-13320,-14360,-1504,4444,20272
2960,-18884,-6088,3238,19637,18946
1584,-14364,-6148,1164,2140,8921
392,-9256,7508,3672,17492,-5643
1976,-13108,4908,3807,11816,-1225
376,-16596,8036,-1088,11162,-6031
5236,-13712,7876,-4139,-2636,-1182
6804,-6028,17264,5621,-17095,-5804
7708,-3452,12804,-3034,-4865,-10719
14104,-7480,10020,-4710,-8389,-5362
11324,-6008,2868,5786,-23564,918
12916,-7344,-8188,-2556,-20702,11587
