timestamp,ax,ay,az,gx,gy,gz
0,3284,-13752,-956,-4113,-10482,-1550
10,4560,-16076,-1040,-4334,-2890,-1304
20,5904,-13068,-3692,-7035,208,-9323
30,5528,-11224,-6968,-11193,9722,-21224
40,15900,-5448,-13036,-8192,7497,-15561
50,16716,-2952,-8968,503,6704,-7524
60,16212,-3460,-6272,3820,-1688,2447
70,22760,-2476,-6928,2403,-6757,10309
80,10952,-10012,-5764,8683,-3654,16651
90,1544,-12612,-7640,15252,1172,18526
100,2800,-21716,-44,7321,-6424,3336
110,2556,-14860,-356,25,7835,-3650
120,3984,-11212,-4924,16082,-6183,21377
130,5336,-15124,-4796,10856,2713,2448
140,2912,-11512,-3088,3179,7377,-199
150,2832,-13940,3856,-893,7083,-1197
160,3848,-14620,5004,198,7569,-91
170,2804,-13868,6748,-1621,-6169,2346
180,-1048,-7740,1336,-4499,-15164,5249
190,636,-17488,-1168,34,-10204,9649
200,-3088,-18456,-3000,417,10461,-8700
210,1028,-18916,-5188,1214,857,-3345
220,7416,-18488,-1476,5275,-1573,-1286
230,3780,-15312,6136,10013,-37,658
240,1380,-15276,5872,-173,-8022,3549
250,-1116,-10500,248,-4347,-11970,2785
260,-448,-13616,312,-4133,-9250,7402
270,792,-15480,708,-5316,7687,664
280,-1108,-15976,-3592,1731,2289,-3240
290,4692,-13448,-10520,5890,2420,-6361
300,2684,-19148,2016,10388,2568,-437
310,1860,-10172,6660,10480,-1514,-2608
320,3764,-14284,12828,2293,-922,909
330,3680,-11592,12140,-2800,-600,-8
340,3460,-14124,12288,-11047,1099,-1034
350,5048,-17944,3864,-14578,2661,-3618
360,844,-20492,-7300,4697,3370,-5856
370,4668,-20688,4868,11320,3450,3207
380,1952,-11936,6264,9253,-790,2218
390,3956,-13692,12564,2408,-1035,447
400,2712,-13692,13660,-2937,2764,-1050
410,2956,-14836,10740,-10450,355,-2198
420,2560,-15724,1396,-14007,-7576,-2506
430,6096,-17816,208,-10825,-884,-5209
440,5628,-20168,-10820,-316,-2181,5777
450,4240,-18624,-5212,9595,-3580,3751
460,1968,-14384,-4508,-102,13195,-3129
470,1132,-11104,1452,341,6143,-1560
480,2516,-14660,11316,-5567,-33,-78
490,3084,-14532,10040,-13474,2175,-5229
500,4612,-18392,4436,-15856,521,-8269
510,11468,-7240,-4592,-7417,-12509,-11993
520,6984,-18388,-8208,1687,-4481,9336
530,-2852,-21056,-7452,13974,-1171,7308
540,704,-11900,-7184,2282,26205,-8764
550,2660,-8320,4672,1424,11583,-3720
560,2084,-11436,4260,2591,13382,3154
570,1420,-17628,10844,-2203,-4272,2735
580,2532,-15180,6744,322,-5219,2179
590,2212,-14684,4244,-2843,-10006,2718
600,8648,-8932,-16320,-1848,-13352,-3595
610,7024,-14768,-9644,10028,-6059,7974
620,6924,-19168,1652,8201,-4070,1765
630,552,-14336,3484,1823,20852,-5104
640,1864,-10884,-1192,3613,4816,-737
650,2228,-14796,7928,-1979,9267,-675
660,3528,-14716,6236,-2973,-1837,1825
670,2640,-16384,6572,-740,-5000,1749
680,2104,-12784,7440,-2641,-7542,413
690,744,-9824,-392,-5434,-14154,4156
700,1940,-14616,-1408,-3911,2345,4153
710,-1708,-21428,-4716,-4850,8527,972
720,-12,-12912,-3740,362,10356,-1672
730,2036,-10188,-668,2797,11199,-1964
740,3656,-12896,7040,2146,9348,279
750,3468,-16240,5364,1576,-481,3118
760,2892,-15508,6612,-407,-2721,1151
770,1804,-12352,6556,-5813,-9556,1636
780,-644,-9084,-516,-5576,-18078,5478
790,-1012,-17140,-4936,-3998,10079,8231
800,-3692,-24692,-5208,-8481,2573,-3205
810,4252,-15696,-1076,5903,-1540,-1519
820,56,-19200,-1676,10464,5113,-3541
830,3960,-14732,11784,8195,-3216,1229
840,1968,-16232,9052,-1647,-1184,4397
850,1372,-16120,8388,-1385,-8121,1350
860,1844,-12244,5648,-6076,-9087,1855
870,68,-7920,888,-8399,-15957,5760
880,-2908,-18228,-7220,-4353,12795,7486
890,-4292,-18516,-3372,-3773,-2592,-1196
900,-968,-14132,-6652,1168,7248,-2740
910,-2536,-15620,-9692,5529,3654,-2578
920,1748,-22368,1236,15125,3184,203
930,-1360,-11452,3800,5975,-7158,5271
940,560,-16716,17940,6043,725,-1757
950,184,-8884,11592,3173,469,696
960,1740,-13352,8076,-3907,-4763,420
970,140,-7116,2532,-12477,-12811,7227
980,-4828,-17492,-12432,-2284,-985,8004
990,-2164,-17564,-1668,-4806,-5532,-911
1000,-3436,-18756,-7512,2215,9775,-7074
1010,-2184,-17596,-3068,10641,-485,-2927
1020,1912,-20148,4072,15956,1234,-3216
1030,468,-6528,8856,3589,-1051,4833
1040,1916,-13444,20520,6322,1830,-2021
1050,860,-8028,12408,2931,-580,-1399
1060,2408,-12096,16260,-4258,527,667
1070,1716,-11904,14764,-9832,556,-1098
1080,-1524,-18336,4144,-4722,4172,2444
1090,-4768,-22120,-5312,5808,-1215,-8269
1100,836,-16632,-1540,11683,2713,-4833
1110,-4420,-19192,20832,9157,6106,-1718
1120,1056,-9720,11632,7080,-2009,-2492
1130,1192,-11128,18188,3718,-1680,621
1140,2148,-10316,14208,-2515,1123,40
1150,2064,-11100,14856,-7349,280,270
1160,2652,-12568,12112,-11622,551,-477
1170,960,-11300,7880,-7350,-8107,1451
1180,-3956,-26152,-1736,-15725,14583,-434
1190,-212,-17536,-8900,-8514,-6238,2295
1200,964,-21716,-412,6951,-2725,-887
1210,6880,-24820,6048,9981,10674,-5014
1220,-2128,-5356,8216,9363,4891,6389
1230,1028,-14684,17920,10759,489,-3302
1240,1040,-6888,12396,4236,-100,-1524
1250,2240,-9416,18556,-2688,-706,322
1260,2256,-9264,14748,-8153,-175,-143
1270,1904,-11624,13972,-12165,-2336,-889
1280,1392,-13048,10448,-11110,-5097,-881
1290,-1588,-20424,-4412,-19523,2773,3255
1300,2580,-16228,-10492,-3590,-7283,4639
1310,-6456,-30620,-4160,12322,-7378,4510
1320,3384,-7572,14876,11716,2665,-1885
1330,3272,-9512,20076,4797,-294,58
1340,3808,-9276,14040,-3778,4488,2538
1350,3664,-9928,14056,-5019,-1345,43
1360,3464,-12000,15088,-9508,2553,-1616
1370,3864,-6756,11520,-4244,-23031,2749
1380,5704,-15112,8548,-12186,-2216,-1228
1390,748,-22032,-5076,-7847,-2795,5264
1400,-3308,-28308,-1848,7358,6140,4273
1410,5540,-19448,-1796,-1056,-283,648
1420,1652,-10316,540,-1244,-3429,-5992
1430,600,-9188,-4,536,21670,-2356
1440,2000,-12112,14776,-4325,141,413
1450,808,-8040,17460,-1648,840,-2148
1460,4020,-7432,8936,-10177,-2153,4929
1470,1316,-14628,16912,-9831,3260,-14060
1480,-684,-20088,-4244,-6938,5982,2911
1490,-5396,-23848,-7848,-141,5306,7329
1500,-1532,-25336,-2696,-2469,289,-125
1510,-1668,-11128,-4572,-2443,3102,-11938
1520,-600,-9204,60,381,14874,-2466
1530,1924,-12624,7348,62,13951,540
1540,3232,-15656,4924,734,-3020,3788
1550,1236,-16296,6716,2198,-9956,3352
1560,2944,-11052,8136,-19237,-1491,-3009
1570,-356,-16548,-4196,-6621,1072,4134
1580,-4060,-23680,-3436,-688,5480,10072
1590,924,-20896,784,-3541,18224,214
1600,-1844,-14636,-5968,-1699,6936,-10428
1610,-24,-10076,-36,1250,14585,-4249
1620,2248,-12864,4848,-492,9875,-3671
1630,5564,-14980,5652,1082,1187,4497
1640,3488,-14792,6092,2591,-5937,3807
1650,2008,-14788,7100,1595,-12290,3621
1660,-1504,-5632,1840,-2510,-18591,4399
1670,-4444,-21220,-6640,-3078,7210,9892
1680,2832,-22924,-708,-3924,11808,-2528
1690,-124,-14284,-4956,3292,12260,-8859
1700,1776,-8144,-2728,1014,12067,-2233
1710,-968,-13080,6888,626,21332,-2178
1720,3580,-15876,5084,-534,-3584,4078
1730,3128,-15840,6656,319,-7399,3897
1740,1988,-16452,8052,-2193,-10252,1488
1750,-1336,-4932,-560,-5820,-20743,9686
1760,-2788,-20932,-8156,1737,-6226,9474
1770,-1580,-15740,6684,-571,1646,-4597
1780,-9008,-29392,2956,5251,-971,-3448
1790,-2220,-21008,5404,16177,-3356,-8473
1800,-296,-9628,116,2677,12488,-4376
1810,2736,-11320,3204,-2207,17330,-4744
1820,4060,-13600,4896,-467,7053,1245
1830,4180,-14884,6756,2136,-6885,7323
1840,1788,-17404,6436,2595,-10998,5805
1850,984,-11976,6892,-1353,-6517,980
1860,964,-9648,-6056,-11635,-8360,10790
1870,-2912,-15980,-2760,-7403,4836,6120
1880,-7624,-17072,-2448,-1362,-1790,-1251
1890,-2992,-17332,-10048,3392,-6581,-12837
1900,1768,-14332,-2552,10670,-1687,-7312
1910,5996,-22096,10808,11585,9133,-3251
1920,-1544,-11100,780,2156,9390,-6872
1930,2788,-8616,2368,-1634,17005,-4282
1940,5288,-14588,6428,-2116,4183,1334
1950,3752,-15448,4200,-171,-1554,1871
1960,3068,-15324,4596,1994,-362,2303
1970,2180,-15348,8700,1071,-8833,4750
1980,876,-12988,5520,-7624,-11399,4276
1990,-2876,-10560,-5284,-1921,-12127,6288
2000,-1312,-18544,6624,-150,20472,3934
2010,-2008,-16500,-7536,2267,-1407,-5908
2020,-836,-19648,-8920,1789,-16468,-9913
2030,8168,-12936,2584,10660,5254,-8133
2040,-224,-8904,3936,2299,22849,-2819
2050,3452,-14724,10144,-1843,-5557,7683
2060,2592,-17108,7508,-2857,-531,-202
2070,344,-13412,6784,-165,-9436,220
2080,-740,-11164,5448,-5509,-11289,5882
2090,-4480,-12240,-8900,-1270,-12032,10150
2100,-2768,-29396,5340,-1265,-2733,-1552
2110,-2336,-19304,-4536,4426,-4889,-1021
2120,-584,-14240,-1448,8084,-4907,-6763
2130,4212,-26064,21660,9792,19560,1037
2140,1948,-3512,10508,12676,3230,-1379
2150,76,-11296,30264,6883,12580,3333
2160,4004,-17200,7220,256,-8511,624
2170,2232,-9488,7492,-1623,-19485,7970
2180,-3940,-8952,-7556,-4216,-24684,12277
2190,-1388,-19180,4060,-1345,18606,5699
2200,-4560,-22952,1420,-5220,4701,1289
2210,-4044,-19708,-3260,5657,-12736,-13072
2220,964,-20148,-1696,10561,-1370,-5232
2230,720,-25880,5964,20948,14303,-6145
2240,-4452,-7184,6972,8893,-8695,719
2250,2980,-12364,20388,8231,6362,1031
2260,2192,-2592,15472,6894,-11088,-1877
2270,2660,-7044,20336,-6304,8932,1199
2280,4416,-14636,4932,1993,-1499,2524
2290,2184,-13044,7648,-2945,-14365,7393
2300,-2844,-10024,2940,-10626,-17383,6686
2310,-6696,-16096,-14972,1185,2100,6469
2320,-2332,-17104,4292,-1253,-3783,-3303
2330,-4496,-15264,72,518,3368,-932
2340,-6988,-24232,-12232,-1984,-8798,-7785
2350,748,-16564,-2128,14884,-7781,23
2360,1344,-16568,13188,16163,6248,-351
2370,888,-9048,14956,6893,-3992,1109
2380,1104,-11476,17200,4479,1928,489
2390,1352,-7976,11336,14,-1045,-1297
2400,2568,-16136,8264,-3911,-7338,-949
2410,320,-9224,3808,-5192,-20920,5479
2420,244,-9276,-452,-6260,-16550,10745
2430,-3140,-15928,-8292,-1582,14439,3963
2440,-9540,-20228,-11920,-6154,-23724,3693
2450,-5128,-22860,-10480,2486,-14223,-2458
2460,1724,-13324,-1088,18613,1420,-9087
2470,-1420,-10700,13776,11991,8711,-893
2480,-120,-11448,12416,11296,799,-6406
2490,2972,-5640,15588,4589,-4529,-1700
2500,4144,-9328,16548,-264,3430,-303
2510,3992,-7260,12312,-5747,-1858,4537
2520,-84,-12896,4712,-8204,-13022,3340
2530,-876,-11144,-464,-8888,-16611,5558
2540,-900,-12936,-5408,2745,6460,2948
2550,-3780,-17740,-656,-148,-12791,-6163
2560,-828,-21280,620,6534,-11442,2005
2570,-1932,-18320,-8172,7308,-2014,-11604
2580,6124,-24332,14628,17288,13784,-4638
2590,148,-5908,5264,8871,208,2359
2600,2428,-10712,19008,4340,1376,2500
2610,1176,-7108,12184,-1346,-5210,-232
2620,1948,-12220,17016,-3399,806,1200
2630,2208,-15952,7940,-1501,15,-2678
2640,496,-12812,6408,-2410,-11865,4579
2650,-2016,-12196,2024,-5398,-16419,4905
2660,-4676,-16132,-9616,-1172,1963,5930
2670,-1072,-18816,6844,-2988,-1117,3974
2680,-3672,-16480,328,7211,-3768,-1568
2690,-2672,-15828,-9212,5972,-1535,-12500
2700,6284,-24832,14440,16121,14566,-3391
2710,-1012,-6112,4852,7756,-2420,6327
2720,1880,-10408,19608,5940,-1368,2666
2730,1616,-7880,9652,-1743,-1641,-899
2740,2984,-8992,16844,-5256,1544,793
2750,1480,-14244,15520,-4907,-5628,-12704
2760,7116,-6304,12372,-4036,-4960,-25611
2770,12076,-13332,104,-2638,-30309,4620
2780,13508,-11164,-11916,-677,-8387,7820
2790,4344,-12112,-11756,4828,15570,22621
2800,13720,-20280,24448,-678,11514,21510
2810,-656,-15224,-3668,6247,13861,-3180
2820,876,-9132,2596,3327,16860,-5890
2830,1152,-12076,8588,1400,12056,-1921
2840,1220,-16104,10008,-3044,5929,-367
2850,1900,-14476,10656,-589,-9248,-127
2860,980,-12540,6916,-7025,-16461,5738
2870,988,-8364,80,-13480,-17987,8863
2880,-312,-20424,5184,-19246,-3622,-8860
2890,76,-19024,-6852,-18560,-2484,922
2900,784,-22948,-12524,5055,-5139,4810
2910,7220,-25376,10228,4923,8563,11936
2920,-380,-18032,-2412,932,-3224,-3945
2930,880,-7592,-1724,-321,10011,-3292
2940,1888,-11764,8368,2102,21881,-7633
2950,5676,-12448,5348,-1604,6486,2232
2960,2752,-16948,11152,-1174,1837,1318
2970,3108,-13644,8656,-3093,-5918,-1884
2980,-296,-10052,2192,-6343,-20428,9894
2990,1368,-13056,7688,-13988,-2095,-1216
3000,1712,-18484,-20,-14896,-1767,3550
3010,736,-18124,-8660,-6978,2977,259
3020,1160,-19904,-5964,6762,-3048,4434
3030,2940,-22276,-5336,-500,3838,-4926
3040,-2608,-10572,-7424,2182,10716,-5878
3050,4,-7096,4320,5630,10004,-3745
3060,4480,-17620,5460,376,8957,-1549
3070,4264,-11948,5896,-4401,6863,-4626
3080,5372,-15976,5432,-341,-3877,7479
3090,3392,-16764,6472,604,-2036,-510
3100,1996,-11656,8480,-4389,-14091,4931
3110,2504,-12536,8056,-13553,-2005,-1331
3120,-480,-18844,3072,-17447,4433,3437
3130,608,-18192,-9328,535,2682,2668
3140,-6692,-25652,-4512,5598,-7704,10336
3150,-212,-19304,-6592,-2664,10252,-10341
3160,-180,-9088,-6416,-1142,6412,-9916
3170,2136,-12968,-68,-3129,18722,-5123
3180,3864,-10536,6304,-3538,14690,-211
3190,6124,-17084,7896,862,-4218,7075
3200,4732,-14464,5292,2432,-3773,2945
3210,2416,-13664,8264,-480,-18411,6686
3220,-996,-9392,-840,-4744,-15311,12403
3230,2500,-12536,-944,-15625,-9616,912
3240,600,-14040,-11352,-13269,381,2822
3250,-1900,-14196,-14244,173,-3105,4014
3260,3188,-19900,5832,5490,8068,1139
3270,-464,-16592,-7844,-680,7979,-10934
3280,672,-10732,-10056,-2017,9694,-3319
3290,3184,-10848,5616,2543,21933,-156
3300,4268,-12964,4496,278,10116,723
3310,4668,-16112,5608,-1133,4291,2886
3320,4696,-14840,5076,-193,-1858,1304
3330,2236,-14524,7668,-97,-11928,5376
3340,-2416,-11760,472,-6448,-20209,6108
3350,7028,-12180,-4052,-10542,4578,3149
3360,1408,-19312,-10180,-2183,604,11182
3370,2404,-25772,-7556,-3560,715,-1691
3380,3108,-10116,3508,-1959,5456,-8017
3390,1756,-9468,-3020,-17,13638,-3293
3400,3504,-13348,1776,-2422,9484,-3426
3410,5596,-13984,6248,-1859,6595,-574
3420,4284,-14568,3820,1222,2876,3440
3430,2848,-17996,3956,4211,-6591,4852
3440,2504,-14604,9488,400,-11210,4107
3450,-248,-8544,2832,-9108,-19706,7375
3460,-4016,-13140,-8252,-3292,-6558,7209
3470,-3788,-16852,-2416,-8389,8123,1107
3480,-5972,-23452,-12872,2538,606,-11454
3490,2088,-26608,-3360,-11497,12568,1680
3500,1744,-11444,-2504,-1870,9306,-8585
3510,1428,-7868,-2884,5145,16709,-1326
3520,2272,-11404,4432,1465,14729,-874
3530,4132,-16132,8840,822,600,5923
3540,3332,-16540,6176,2012,-4481,2985
3550,1492,-16180,7608,1165,-10394,3609
3560,916,-11580,6896,-8132,-15003,4909
3570,-1228,-7900,-2900,-4191,-21563,6759
3580,-2608,-17804,-792,-2848,26699,7910
3590,-6892,-19140,-4572,-1814,-2288,-2729
3600,2296,-13648,-7724,2358,-1032,-10466
3610,9888,-19312,72,3883,5541,-462
3620,-480,-12128,-3756,-2189,7524,-5122
3630,2556,-11040,-1440,-2030,18727,-5461
3640,3616,-12348,2544,-1889,16488,-3337
3650,6832,-13280,5708,84,86,4614
3660,4164,-16268,5852,2138,-5892,4467
3670,2016,-14180,11440,1162,-17478,8478
3680,-2280,-9152,-5876,-6600,-18716,7738
3690,-3748,-15248,-6120,-3676,5961,1148
3700,-2136,-19416,2484,-7182,-945,-2383
3710,-2436,-20100,-6356,2614,-1865,-4844
3720,-304,-14020,-3108,12757,9110,-5162
3730,6468,-18496,-3496,3045,7331,-2329
3740,-252,-9896,-2400,2199,11934,-10467
3750,1224,-10804,2188,774,18686,-2959
3760,3024,-13672,8008,-1514,13601,-888
3770,3836,-14984,9432,-1888,418,3017
3780,2396,-16624,5104,-512,-2550,1643
3790,1940,-13768,9776,-4472,-15579,2190
3800,-788,-7996,2028,-9062,-21603,4659
3810,-7720,-17068,-15604,1648,9607,6545
3820,-2720,-21796,-5804,-8903,-12683,-5150
3830,-2572,-20652,-7096,-1204,-2906,-3203
3840,-380,-14460,-2488,11217,537,-3387
3850,3108,-8696,-904,225,10245,-4172
3860,2700,-11036,5348,1715,18426,4057
3870,1884,-17916,9016,3879,-4000,8237
3880,1520,-16028,4300,1321,-6569,2682
3890,1284,-13876,11132,-549,-10352,2082
3900,1092,-10944,5712,-13797,-19009,5886
3910,-4812,-13764,-7372,-6927,-11055,8552
3920,-3848,-15428,-9416,-3133,8790,3787
3930,-6324,-25260,-4876,-8445,-2066,-1757
3940,-36,-20472,-5980,5278,11768,-6288
3950,108,-14884,-4528,13952,2071,-4108
3960,2104,-21284,8464,22190,6977,-2804
3970,3916,-13604,6340,-1844,7115,-1249
3980,3680,-14812,5096,-951,3710,4086
3990,2776,-16476,5820,-1248,-5608,2805
4000,1428,-11440,9168,-6439,-13611,2051
4010,-4356,-5764,-1544,-5442,-25093,18124
4020,-3324,-20652,-5048,-7859,16820,2706
4030,-4776,-19344,-6288,-7695,-6218,-1789
4040,-1292,-16568,-12124,4684,713,-10949
4050,256,-12708,-5292,19057,2469,-3917
4060,3416,-17736,3120,16697,6493,-5192
4070,1572,-6036,9928,3816,-4311,8133
4080,1064,-10516,19460,6081,4255,-4136
4090,4628,-16320,5384,-2017,-973,-1265
4100,4908,-15320,4860,-819,-2185,957
4110,2148,-12476,8560,-2573,-14404,3433
4120,-3824,-8508,1300,-5630,-29338,9078
4130,-1084,-14488,-6928,-2424,18414,6597
4140,-3180,-18724,-7484,526,-1520,-5092
4150,-3472,-25768,-1540,11523,-5537,-3293
4160,-440,-16400,-3940,8209,9077,-14743
4170,464,-12384,20832,8368,4690,4317
4180,720,-8340,16552,13112,2951,-559
4190,1148,-7540,18100,2648,-1709,1366
4200,104,-8332,18404,-3692,2252,470
4210,132,-10328,4176,-7375,-17173,2375
4220,-4636,-13308,-9548,-2013,-15095,9178
4230,2000,-14500,3132,-4957,629,4331
4240,-1188,-20964,-6080,1031,-6611,-1773
4250,-2772,-20976,-14240,2931,-3693,-8647
4260,4088,-17012,28,14366,3469,-3741
