timestamp,ax,ay,az,gx,gy,gz
0,-312,-16432,4044,-386,13958,-19767
10,3232,-5724,5384,-840,8777,-15676
20,6848,-8436,5696,2774,2631,-2748
30,17456,-23080,14064,-458,2891,5185
40,5968,-20760,8872,-2298,5155,3408
50,856,-11708,10316,-2735,-5865,17584
60,-1064,-8664,3004,4349,-18765,12756
70,-244,-15532,3676,-9138,-662,5214
80,-1428,-18556,8060,-8221,14016,-14349
90,6416,-14868,7324,5519,-3884,-22287
100,4252,-4484,-744,-4091,7484,-6850
110,13904,-2336,2364,-6313,-107,4913
120,20432,-25036,13184,-2575,2327,1551
130,11076,-17464,10476,2262,8141,-5988
140,8992,-9288,5952,-11712,-7126,-1768
150,8972,-8268,14232,199,8072,-9482
160,9996,-25800,10980,-598,6956,-7523
170,11960,-18808,14480,-4563,-9451,9033
180,3176,-9128,4564,-6016,-4827,20337
190,-1076,-11584,4836,416,-20508,16742
200,-3020,-16148,1372,-586,-8185,3746
210,-2784,-17116,5528,-7741,21208,-14320
220,5176,-13300,1732,-899,15950,-13042
230,648,-1512,11072,9787,17960,-20246
240,9012,-14664,1420,-1925,-10375,-12295
250,20364,-20196,19324,-1975,-1985,8882
260,9616,-16144,8232,2094,3927,12885
270,2356,-19780,3824,-6009,18862,-15782
280,4820,-12948,5684,-5047,25228,-17687
290,7052,-6300,2404,-2424,-3522,523
300,13452,-5172,5460,-9966,1983,-3591
310,15780,-23272,3564,3196,64,1904
320,11188,-21344,540,5802,-998,2903
330,5416,-11244,8080,-3192,5164,13564
340,-1380,-8436,3180,454,-21956,14621
350,-336,-19912,6236,-2676,-9580,9836
360,984,-19148,-672,-1715,-2394,541
370,-1668,-19424,5012,-1585,22195,-19549
380,6928,-8396,4928,773,3646,-15034
390,14916,-16880,8976,-1089,-9193,11634
400,4756,-12256,4728,2928,-4741,21231
410,96,-8156,5844,-2949,-9294,17460
420,-4516,-16436,1908,970,-23694,11920
430,480,-16892,3464,-7487,12305,-8963
440,3308,-18040,2048,-5766,14056,-22402
450,9892,-12036,6524,-3018,5740,-15283
460,5136,-5256,1212,-1903,6936,-8582
470,9324,-10284,9256,3596,7938,-11146
480,24980,-11616,18228,-2029,4950,4445
490,12624,-13336,8676,-3123,-1619,17602
500,5128,-8188,2620,1404,-2933,25410
510,2164,-14068,-1020,-270,14763,2165
520,-956,-8332,4276,-2179,21,6667
530,-2832,-15720,8788,-3952,2283,18716
540,-14180,-16284,6716,6159,-2238,6749
550,-13928,-20172,6484,-5366,2266,-12279
560,-4308,-12636,3848,-2171,-8151,-12383
570,-204,-6920,1188,1763,-2180,-7416
580,2756,-14216,2272,-4786,-8061,-6718
590,1912,-15076,5128,-73,8285,-2514
600,2928,-17504,3260,-451,2628,816
610,3008,-15128,3644,336,4445,5254
620,2168,-6776,3044,-1148,8089,12672
630,960,-10364,4768,-2267,-7902,7546
640,1544,-8948,5788,631,-15048,9919
650,-616,-24912,5236,-4634,-15264,7296
660,352,-16424,9912,2509,-2259,2641
670,-648,-16048,2656,-4711,23891,-11070
680,1936,-11140,7844,962,9635,-9923
690,4360,-9720,-148,3961,-103,-11115
700,10608,-16392,10544,5648,6817,-7260
710,12188,-24584,14384,-6722,-4375,8553
720,4964,-18476,8436,-662,-1581,14451
730,-1676,-9684,6632,876,-9119,16964
740,1288,-9696,1616,-137,-22543,9667
750,-1440,-14268,7656,-1606,5690,2528
760,14080,-16704,4608,385,-7449,-7736
770,15332,-24208,11516,-2785,1674,5625
780,8836,-15924,5560,163,-1545,11350
790,2812,-11788,4368,1788,-3220,17781
800,-516,-9204,3784,-721,-10658,15666
810,-5420,-22608,4092,-5195,-10037,5734
820,-2172,-22732,5952,-5257,15759,-14432
830,6152,-11424,3640,-7524,16865,-21659
840,7968,-4828,5316,8170,2755,-14656
850,15160,-11588,7140,3367,16620,-9152
860,14564,-17772,11760,-2473,-13390,12622
870,5908,-16200,8124,-589,3852,18370
880,4796,-2732,5796,1898,17712,-21458
890,11184,-9612,1624,1265,-8547,-23158
900,23840,-8720,24748,-6320,10602,1446
910,14172,-10144,7548,-3267,328,14537
920,4308,-12056,6796,-6899,-7159,28645
930,-3480,-7644,1980,202,-22592,22165
940,-5920,-25528,6852,-4475,-9163,6321
950,-156,-20236,3320,-7478,4990,-9409
960,-308,-13904,4204,-407,30011,-20252
970,-1544,-7976,3772,3021,-7311,-11984
980,7604,-17764,6964,-2911,6726,-12399
990,17820,-24340,12720,-3856,-2849,3076
1000,7260,-19016,6008,-45,-2132,14876
1010,2840,-1748,5852,421,5477,-24875
1020,8840,-13976,1100,-2159,3937,-19161
1030,21756,-16236,22348,-7500,-1465,5287
1040,9392,-16624,2920,201,-269,9754
1050,3944,-10264,2820,-4015,-7073,19076
1060,3624,-10252,8620,12350,-10981,23374
1070,-2612,-15844,4124,-2141,-8859,7493
1080,-3564,-16712,6104,-7510,9385,-11695
1090,2236,-15196,2880,-6810,19933,-23100
1100,3500,-5880,6164,1508,2740,-14081
1110,10896,-10192,6868,5000,1383,-13436
1120,21080,-11664,20152,-2633,3141,1692
1130,-2280,-22096,5092,-409,-21497,13469
1140,-1932,-16944,5884,-1647,6556,-5607
1150,-2104,-11684,4240,2194,28971,-20286
1160,6708,-12868,13060,20786,-20388,-29486
1170,18492,-5880,25992,4237,20053,-18806
1180,11724,-4668,15388,-8869,-6758,8559
1190,8136,-9188,6796,-10723,-4792,20754
1200,1432,-7296,4588,-8860,-8600,25447
1210,-3044,-24428,7556,-1795,-27250,21711
1220,-536,-16880,2124,-1673,1147,-3650
1230,-232,-18328,5060,-2135,20675,-25285
1240,5592,-8408,6764,5547,7334,-16636
1250,3908,-8280,7344,-6683,-11132,15000
1260,-788,-9800,4696,-7816,-6325,16771
1270,-3240,-22204,-4244,-400,-2092,8012
1280,3312,-18968,3004,931,3745,-7819
1290,460,-15228,4468,-3778,17057,-9646
1300,-3280,-6636,4096,-253,17138,-4292
1310,1592,-26512,3800,-4655,1074,-2115
1320,4132,-28304,7880,-1708,-1353,9206
1330,-1992,-20144,5056,1604,4632,7787
1340,-2736,-5956,3380,2291,-24393,229
1350,4944,-15088,-1544,-2750,-12465,-1164
1360,4352,-14304,6628,-4126,7201,-4592
1370,7648,-13308,4404,-438,660,16900
1380,-2700,-9640,3064,-1649,-12740,16707
1390,-224,-20040,3512,8441,-20611,18228
1400,-844,-15088,6964,-1731,5941,-1962
1410,-340,-18076,5212,-4137,26821,-23823
1420,3396,-8704,8424,1383,5771,-16326
1430,7360,-7256,2608,4671,3872,-16404
1440,17764,-17380,16080,-3480,4912,-1392
1450,14228,-18624,12340,1769,-10772,14214
1460,3060,-9844,7648,3494,4468,19836
1470,-732,-7912,6756,1118,-19155,19834
1480,-268,-19524,5120,-5569,-10273,10249
1490,124,-18972,5336,-7289,11389,-9624
1500,-396,-5728,6200,-1032,-7630,21674
1510,-2580,-22660,4144,271,-29180,16214
1520,584,-14524,7480,-4203,9814,-5183
1530,1812,-17608,3344,-6480,16933,-20990
1540,8984,-11296,8908,-160,13505,-18471
1550,6228,-3188,232,70,-2715,-4206
1560,9932,-13624,12048,5991,11237,-9281
1570,20156,-16560,17236,-2453,-1239,855
1580,13500,-15124,8844,1724,-1472,7663
1590,3212,-9736,5776,3172,906,18501
1600,168,-8572,5880,-462,-16769,18440
1610,-592,-25488,7748,-3011,-16857,15583
1620,-164,-21208,4932,-6685,8639,-8688
1630,-2424,-21336,5404,-7621,12132,-18228
1640,1260,-13412,8084,3108,28127,-25923
1650,636,-7552,1388,6580,-7367,-22211
1660,14352,-5332,15572,5223,11646,-12450
1670,20260,-8024,22668,-6232,-4176,8403
1680,14104,-9968,12692,-5208,-3732,18465
1690,3300,-9044,6212,1795,-6696,29077
1700,596,-14032,7056,3760,-24836,25477
1710,-880,-14988,2252,-2934,5902,4746
1720,-3456,-20084,5016,-9933,17225,-18097
1730,3080,-14180,5088,1464,28499,-18999
1740,-7376,716,-1496,7938,2680,-19038
1750,12440,-14928,3044,-2700,-4233,-6226
1760,136,-17112,2976,-9388,3905,-741
1770,-392,-18192,4216,-3540,15246,-11726
1780,1500,-4964,7664,-614,18383,-18875
1790,4328,-14580,4884,4135,-6275,-14289
1800,25308,-14380,19288,-3313,11335,3864
1810,4612,-15816,3404,2581,1201,15291
1820,32,-15836,10068,2256,1884,18699
1830,-5300,-10212,8032,2379,-13876,15880
1840,-3036,-10472,6944,-4992,-24194,13955
1850,3456,-16104,3244,-12986,4012,-5965
1860,-504,-17544,6380,-7237,24039,-24784
1870,9520,-10036,5544,-707,8992,-18122
1880,10220,-16776,10384,3441,7767,13848
1890,4700,-9744,7720,2691,-3585,23267
1900,-1468,-13924,9596,-9421,-10047,15829
1910,900,-12312,6664,3142,-23320,16755
1920,-1704,-14388,9016,-8704,27028,-15525
1930,2596,-15200,1080,-3329,19535,-24153
1940,4940,-3708,2780,3759,-4405,-16160
1950,10464,-5096,10544,7941,15500,-14558
1960,21268,-7764,19312,-9503,-4932,5310
1970,11364,-13572,9612,-1115,-10536,13233
1980,3964,-9596,7992,-2796,-6535,26388
1990,-6236,-15980,4924,4104,-31635,16757
2000,-9904,-23008,10608,-356,-253,2278
2010,10544,-5552,4844,7908,9805,-11010
2020,15496,-13104,17300,-3070,1372,6205
2030,10472,-22472,9392,-3653,250,12477
2040,2264,-14048,9800,-2559,8609,13044
2050,-3628,-11968,8584,-3271,-13995,13984
2060,-2056,-10252,7848,1074,-18618,7655
2070,-440,-16768,12,-12766,-7674,-3976
2080,1720,-14988,4400,-1610,14485,-14085
2090,1424,-4452,1436,7985,-433,-5816
2100,8672,-15984,10420,-4265,5336,-2846
2110,-176,-14700,1872,-500,-7144,14864
2120,2588,-21640,10556,592,-10238,-3460
2130,-312,-16432,4044,-386,13958,-19767
2140,3232,-5724,5384,-840,8777,-15676
2150,6848,-8436,5696,2774,2631,-2748
2160,17456,-23080,14064,-458,2891,5185
2170,5968,-20760,8872,-2298,5155,3408
2180,856,-11708,10316,-2735,-5865,17584
2190,-1064,-8664,3004,4349,-18765,12756
2200,-244,-15532,3676,-9138,-662,5214
2210,-1428,-18556,8060,-8221,14016,-14349
2220,6416,-14868,7324,5519,-3884,-22287
2230,4252,-4484,-744,-4091,7484,-6850
2240,13904,-2336,2364,-6313,-107,4913
2250,20432,-25036,13184,-2575,2327,1551
2260,11076,-17464,10476,2262,8141,-5988
2270,8992,-9288,5952,-11712,-7126,-1768
2280,8972,-8268,14232,199,8072,-9482
2290,9996,-25800,10980,-598,6956,-7523
2300,11960,-18808,14480,-4563,-9451,9033
2310,3176,-9128,4564,-6016,-4827,20337
2320,-1076,-11584,4836,416,-20508,16742
2330,-3020,-16148,1372,-586,-8185,3746
2340,-2784,-17116,5528,-7741,21208,-14320
2350,5176,-13300,1732,-899,15950,-13042
2360,648,-1512,11072,9787,17960,-20246
2370,9012,-14664,1420,-1925,-10375,-12295
2380,20364,-20196,19324,-1975,-1985,8882
2390,9616,-16144,8232,2094,3927,12885
2400,2356,-19780,3824,-6009,18862,-15782
2410,4820,-12948,5684,-5047,25228,-17687
2420,7052,-6300,2404,-2424,-3522,523
2430,13452,-5172,5460,-9966,1983,-3591
2440,15780,-23272,3564,3196,64,1904
2450,11188,-21344,540,5802,-998,2903
2460,5416,-11244,8080,-3192,5164,13564
2470,-1380,-8436,3180,454,-21956,14621
2480,-336,-19912,6236,-2676,-9580,9836
2490,984,-19148,-672,-1715,-2394,541
2500,-1668,-19424,5012,-1585,22195,-19549
2510,6928,-8396,4928,773,3646,-15034
2520,14916,-16880,8976,-1089,-9193,11634
2530,4756,-12256,4728,2928,-4741,21231
2540,96,-8156,5844,-2949,-9294,17460
2550,-4516,-16436,1908,970,-23694,11920
2560,480,-16892,3464,-7487,12305,-8963
2570,3308,-18040,2048,-5766,14056,-22402
2580,9892,-12036,6524,-3018,5740,-15283
2590,5136,-5256,1212,-1903,6936,-8582
2600,9324,-10284,9256,3596,7938,-11146
2610,24980,-11616,18228,-2029,4950,4445
2620,12624,-13336,8676,-3123,-1619,17602
2630,5128,-8188,2620,1404,-2933,25410
2640,2164,-14068,-1020,-270,14763,2165
2650,-956,-8332,4276,-2179,21,6667
2660,-2832,-15720,8788,-3952,2283,18716
2670,-14180,-16284,6716,6159,-2238,6749
2680,-13928,-20172,6484,-5366,2266,-12279
2690,-4308,-12636,3848,-2171,-8151,-12383
2700,-204,-6920,1188,1763,-2180,-7416
2710,2756,-14216,2272,-4786,-8061,-6718
2720,1912,-15076,5128,-73,8285,-2514
2730,2928,-17504,3260,-451,2628,816
2740,3008,-15128,3644,336,4445,5254
2750,2168,-6776,3044,-1148,8089,12672
2760,960,-10364,4768,-2267,-7902,7546
2770,1544,-8948,5788,631,-15048,9919
2780,-616,-24912,5236,-4634,-15264,7296
2790,352,-16424,9912,2509,-2259,2641
2800,-648,-16048,2656,-4711,23891,-11070
2810,1936,-11140,7844,962,9635,-9923
2820,4360,-9720,-148,3961,-103,-11115
2830,10608,-16392,10544,5648,6817,-7260
2840,12188,-24584,14384,-6722,-4375,8553
2850,4964,-18476,8436,-662,-1581,14451
2860,-1676,-9684,6632,876,-9119,16964
2870,1288,-9696,1616,-137,-22543,9667
2880,-1440,-14268,7656,-1606,5690,2528
2890,14080,-16704,4608,385,-7449,-7736
2900,15332,-24208,11516,-2785,1674,5625
2910,8836,-15924,5560,163,-1545,11350
2920,2812,-11788,4368,1788,-3220,17781
2930,-516,-9204,3784,-721,-10658,15666
2940,-5420,-22608,4092,-5195,-10037,5734
2950,-2172,-22732,5952,-5257,15759,-14432
2960,6152,-11424,3640,-7524,16865,-21659
2970,7968,-4828,5316,8170,2755,-14656
2980,15160,-11588,7140,3367,16620,-9152
2990,14564,-17772,11760,-2473,-13390,12622
3000,5908,-16200,8124,-589,3852,18370
3010,4796,-2732,5796,1898,17712,-21458
3020,11184,-9612,1624,1265,-8547,-23158
3030,23840,-8720,24748,-6320,10602,1446
3040,14172,-10144,7548,-3267,328,14537
3050,4308,-12056,6796,-6899,-7159,28645
3060,-3480,-7644,1980,202,-22592,22165
3070,-5920,-25528,6852,-4475,-9163,6321
3080,-156,-20236,3320,-7478,4990,-9409
3090,-308,-13904,4204,-407,30011,-20252
3100,-1544,-7976,3772,3021,-7311,-11984
3110,7604,-17764,6964,-2911,6726,-12399
3120,17820,-24340,12720,-3856,-2849,3076
3130,7260,-19016,6008,-45,-2132,14876
3140,2840,-1748,5852,421,5477,-24875
3150,8840,-13976,1100,-2159,3937,-19161
3160,21756,-16236,22348,-7500,-1465,5287
3170,9392,-16624,2920,201,-269,9754
3180,3944,-10264,2820,-4015,-7073,19076
3190,3624,-10252,8620,12350,-10981,23374
3200,-2612,-15844,4124,-2141,-8859,7493
3210,-3564,-16712,6104,-7510,9385,-11695
3220,2236,-15196,2880,-6810,19933,-23100
3230,3500,-5880,6164,1508,2740,-14081
3240,10896,-10192,6868,5000,1383,-13436
3250,21080,-11664,20152,-2633,3141,1692
3260,-2280,-22096,5092,-409,-21497,13469
3270,-1932,-16944,5884,-1647,6556,-5607
3280,-2104,-11684,4240,2194,28971,-20286
3290,6708,-12868,13060,20786,-20388,-29486
3300,18492,-5880,25992,4237,20053,-18806
3310,11724,-4668,15388,-8869,-6758,8559
3320,8136,-9188,6796,-10723,-4792,20754
3330,1432,-7296,4588,-8860,-8600,25447
3340,-3044,-24428,7556,-1795,-27250,21711
3350,-536,-16880,2124,-1673,1147,-3650
3360,-232,-18328,5060,-2135,20675,-25285
3370,5592,-8408,6764,5547,7334,-16636
3380,3908,-8280,7344,-6683,-11132,15000
3390,-788,-9800,4696,-7816,-6325,16771
3400,-3240,-22204,-4244,-400,-2092,8012
3410,3312,-18968,3004,931,3745,-7819
3420,460,-15228,4468,-3778,17057,-9646
3430,-3280,-6636,4096,-253,17138,-4292
3440,1592,-26512,3800,-4655,1074,-2115
3450,4132,-28304,7880,-1708,-1353,9206
3460,-1992,-20144,5056,1604,4632,7787
3470,-2736,-5956,3380,2291,-24393,229
3480,4944,-15088,-1544,-2750,-12465,-1164
3490,4352,-14304,6628,-4126,7201,-4592
3500,7648,-13308,4404,-438,660,16900
3510,-2700,-9640,3064,-1649,-12740,16707
3520,-224,-20040,3512,8441,-20611,18228
3530,-844,-15088,6964,-1731,5941,-1962
3540,-340,-18076,5212,-4137,26821,-23823
3550,3396,-8704,8424,1383,5771,-16326
3560,7360,-7256,2608,4671,3872,-16404
3570,17764,-17380,16080,-3480,4912,-1392
3580,14228,-18624,12340,1769,-10772,14214
3590,3060,-9844,7648,3494,4468,19836
3600,-732,-7912,6756,1118,-19155,19834
3610,-268,-19524,5120,-5569,-10273,10249
3620,124,-18972,5336,-7289,11389,-9624
3630,-396,-5728,6200,-1032,-7630,21674
3640,-2580,-22660,4144,271,-29180,16214
3650,584,-14524,7480,-4203,9814,-5183
3660,1812,-17608,3344,-6480,16933,-20990
3670,8984,-11296,8908,-160,13505,-18471
3680,6228,-3188,232,70,-2715,-4206
3690,9932,-13624,12048,5991,11237,-9281
3700,20156,-16560,17236,-2453,-1239,855
3710,13500,-15124,8844,1724,-1472,7663
3720,3212,-9736,5776,3172,906,18501
3730,168,-8572,5880,-462,-16769,18440
3740,-592,-25488,7748,-3011,-16857,15583
3750,-164,-21208,4932,-6685,8639,-8688
3760,-2424,-21336,5404,-7621,12132,-18228
3770,1260,-13412,8084,3108,28127,-25923
3780,636,-7552,1388,6580,-7367,-22211
3790,14352,-5332,15572,5223,11646,-12450
3800,20260,-8024,22668,-6232,-4176,8403
3810,14104,-9968,12692,-5208,-3732,18465
3820,3300,-9044,6212,1795,-6696,29077
3830,596,-14032,7056,3760,-24836,25477
3840,-880,-14988,2252,-2934,5902,4746
3850,-3456,-20084,5016,-9933,17225,-18097
3860,3080,-14180,5088,1464,28499,-18999
3870,-7376,716,-1496,7938,2680,-19038
3880,12440,-14928,3044,-2700,-4233,-6226
3890,136,-17112,2976,-9388,3905,-741
3900,-392,-18192,4216,-3540,15246,-11726
3910,1500,-4964,7664,-614,18383,-18875
3920,4328,-14580,4884,4135,-6275,-14289
3930,25308,-14380,19288,-3313,11335,3864
3940,4612,-15816,3404,2581,1201,15291
