timestamp,ax,ay,az,gx,gy,gz
0,7344,-15108,1400,-2790,-236,-609
10,6768,-14588,2728,-9393,8979,-112
20,4932,-16240,3908,-13678,20755,1830
30,5252,-13328,-5428,-11084,1570,-1579
40,7192,-16796,4060,-12728,24479,-1624
50,7796,-15308,2576,-11630,19059,-5889
60,11076,-12492,7212,-11952,15506,-7632
70,11100,-8536,9280,1229,904,-2842
80,9652,-23100,15736,32767,-19245,11266
90,12692,-12728,4244,14991,5727,7145
100,11608,-14988,9444,3071,-1737,6971
110,6864,-15280,5932,-6813,442,2351
120,8152,-15184,4212,-14213,7676,-736
130,7780,-13780,3992,-12040,12375,-4605
140,9384,-13676,4880,-6656,15329,-7401
150,8572,-10772,11060,587,11001,-5000
160,3560,-21216,6148,17837,-27261,11303
170,9576,-14700,3728,1322,-2123,6371
180,8016,-14508,6540,-6217,-3662,4007
190,7540,-15208,3256,-5065,1503,2899
200,8020,-14836,1764,-2387,2168,-764
210,8024,-12084,4448,-1953,421,-1995
220,8140,-15776,3596,-3112,3345,1753
230,7880,-12348,3036,-4542,-966,1455
240,9432,-16956,-1600,-2270,-688,-2528
250,13804,-18408,708,-4,-1698,-9831
260,6692,-6624,-424,-510,1889,-9399
270,6892,-7752,2188,-1224,7613,8447
280,22800,-24520,5488,-6214,20,3510
290,7192,-10008,-1992,-347,541,-3899
300,4472,-5076,828,-2361,3888,8637
310,16580,-25744,6448,-4844,-6407,1264
320,4276,-10036,2032,3005,-2516,-3790
330,5456,-8192,6300,5142,2464,13304
340,12684,-25564,7496,-5549,359,-302
350,8936,-14752,4336,-5619,41,-13172
360,6180,-4536,2140,588,6770,1269
370,10160,-12740,836,-1796,-8479,9636
380,15404,-21488,4676,-459,2885,-3481
390,3756,-7812,-940,-1405,2131,-5207
400,3440,-9544,1768,-870,936,8545
410,15068,-21812,-1148,-2250,-3944,3004
420,6160,-12148,-2324,-2345,-654,-2522
430,3904,-11628,2672,-747,-3371,1501
440,12372,-20740,128,-4372,1059,-2479
450,4272,-7136,-2868,-1264,-2088,641
460,7968,-17068,-3880,4515,-4238,2805
470,9148,-20236,-1784,-1377,3571,45
480,5396,-9264,928,-703,-285,-475
490,8944,-19328,-2872,-920,-4429,952
500,5548,-17536,-3488,-1233,9249,-6637
510,10056,-13796,7248,8934,6584,-18627
520,5660,-7440,16784,8221,-11121,-1412
530,18992,-9220,-20160,25412,-32483,8671
540,12524,-14404,-240,12505,-15472,5162
550,7512,-17516,5300,4685,-1839,5695
560,3492,-17732,1552,-3793,5291,1577
570,7384,-16580,4508,-15309,10734,-2300
580,11532,-15392,6156,-6562,9859,-15757
590,7900,-4524,14792,-3001,5712,-12105
600,10092,-21640,4976,30061,-10127,14722
610,11928,-13428,2996,4505,-4666,7363
620,10420,-11820,7724,-5755,-3428,691
630,11616,-14076,6008,-12685,4069,458
640,10168,-12300,7252,-9408,12741,-6340
650,6020,-6072,15544,9926,-6393,709
660,6360,-18156,-5924,10772,-29659,7175
670,8640,-13768,11008,-2532,6509,1515
680,8092,-14024,7188,-10234,1329,-1878
690,9564,-13260,5008,-14301,8251,1318
700,8836,-16068,4564,-10229,10956,4236
710,6856,-13716,7108,-8798,14111,-4553
720,9804,-13872,-772,-9577,4996,-5215
730,6148,-13332,-784,-3752,10203,-1545
740,9380,-15564,5860,-9318,13915,-1265
750,9728,-14928,6704,-5579,12042,-3487
760,11628,-11416,9184,8392,331,-4674
770,7364,-8028,10692,14456,-12019,4322
780,11536,-16048,3012,27538,-22290,12317
790,9532,-13996,1312,5211,-4855,7449
800,9400,-15272,3036,-7086,-1785,3135
810,10404,-15036,7652,-16713,8941,-8743
820,9884,-9672,6696,-6201,8418,-9995
830,9756,-8880,7272,7691,-291,3241
840,8696,-16056,12600,16369,-11521,19899
850,4736,-15104,-12304,2623,-32768,4193
860,7512,-15784,7020,-10850,2742,2071
870,4572,-16448,-2264,-12004,18332,4505
880,5476,-15468,-1496,-6877,15742,711
890,6444,-16232,2520,-4507,9821,-674
900,6348,-12728,128,3818,7557,-2459
910,9520,-15156,7432,-7366,16620,-1147
920,7368,-14692,2808,-13942,12853,-5513
930,10736,-12828,2956,-10930,10661,-3669
940,10000,-10760,3272,3523,-5034,-3062
950,12576,-10940,-1096,7801,-1357,250
960,13128,-12368,4072,1299,4709,-5494
970,12928,-12472,6184,1865,553,-7337
980,13068,-6516,6868,11637,1225,-7600
990,9456,-4192,9804,20557,158,6211
1000,11944,-10724,5260,25494,-17096,27373
1010,12780,-16424,-4676,4003,-11748,14830
1020,10140,-15496,-380,-17202,6590,8892
1030,6400,-16244,-1932,-11999,10803,5910
1040,6680,-16532,-708,-2037,10310,-246
1050,5520,-15444,48,-3955,12178,-2925
1060,5036,-14788,5380,-17262,14973,2269
1070,6588,-15108,-988,-4090,10831,-480
1080,9184,-14636,2596,681,7473,-3646
1090,10068,-15136,3324,3350,5721,-5880
1100,10920,-11612,5904,4138,442,-3956
1110,11984,-12524,6452,10894,-7138,-3978
1120,11216,-9276,4368,15224,-11777,-5301
1130,9404,-5340,3936,16815,-6180,9390
1140,8192,-18128,3388,16209,-18708,24570
1150,10520,-18696,-2788,8575,-9443,9383
1160,7112,-15820,420,-12852,6914,-3612
1170,8472,-14116,3668,-12040,14792,-5970
1180,11484,-12132,5152,-3760,9971,-7451
1190,11864,-10040,4976,1212,4647,-7331
1200,11856,-8200,7104,8509,1544,-2157
1210,11728,-8084,7832,13541,-3538,5191
1220,11620,-9736,7340,10856,-9302,9899
1230,12560,-11244,6928,3525,2241,7766
1240,12112,-10892,8112,2345,-3884,1433
1250,11892,-12036,9992,12415,-10752,1807
1260,11312,-13372,3816,-4022,6137,1612
1270,10920,-12348,6764,-6385,-445,5358
1280,8884,-14568,2664,-14156,5297,4048
1290,7884,-17356,704,-21077,15808,3250
1300,4480,-15904,480,-14606,18842,4981
1310,5344,-16284,1012,-8567,20372,1776
1320,9092,-11516,6448,-1641,11282,-2143
1330,11092,-15648,5032,-686,10480,-3722
1340,10336,-10636,9620,5380,6523,-8396
1350,10804,-9020,12984,18585,-2078,-3777
1360,8004,-6816,10896,22052,-9791,5679
1370,9428,-8464,8876,16555,-4209,16644
1380,12320,-12692,7220,6904,-7828,12719
1390,12312,-12112,7572,4606,-7226,6274
1400,12656,-11564,7696,7669,-10483,3613
1410,9836,-14380,-3864,-3836,-2259,2876
1420,9808,-11040,3368,-6389,-9687,5113
1430,7696,-15332,48,-13507,12418,6654
1440,7724,-18708,3184,-16581,25627,-151
1450,7936,-12920,5560,-18275,19636,-6623
1460,9736,-15332,5080,-21402,10011,-286
1470,12500,-10060,2264,7019,12196,-9356
1480,12268,-8780,10080,17446,3569,-5036
1490,11516,-5312,11380,14319,3227,3676
1500,5996,-2468,14844,22269,-8595,21579
1510,11360,-14356,5164,12712,-32768,24020
1520,10028,-14072,7944,1967,11186,6307
1530,9012,-14520,4840,-7220,1138,-436
1540,7660,-13244,6592,-16052,2245,-2817
1550,4924,-15296,4080,-20621,21937,4828
1560,7084,-20816,96,-5649,11807,-855
1570,7092,-13052,3680,-12111,18699,-6496
1580,9388,-14520,5972,-5407,18914,-6415
1590,11248,-10176,10876,1986,9779,-8500
1600,11968,-8952,9364,7920,-2562,-5230
1610,10508,-5684,8840,11646,308,415
1620,8664,-4912,12464,11970,2001,11817
1630,5872,-12960,13100,8022,-4753,32767
1640,5600,-19652,3064,-4232,-30713,19222
1650,7144,-16472,7800,-8425,5793,3567
1660,2772,-16368,-616,-11682,-794,2809
1670,4248,-17952,6776,-8136,15492,-2987
1680,3560,-15136,3376,-9201,14240,-2117
1690,6164,-18596,3216,-3053,11826,-2076
1700,5924,-13860,4580,6270,3615,-10004
1710,11032,-12796,7268,4740,2552,-5249
1720,12340,-11028,8700,7409,4386,-8443
1730,11600,-6408,12748,10814,5784,-9693
1740,8444,-1424,9960,12282,-1357,404
1750,6892,-1680,11008,5897,-3205,20213
1760,9404,-12308,12492,-683,-18358,32513
1770,13772,-15148,-11520,8454,-823,11256
1780,7312,-16584,1120,-2580,-3692,-4930
1790,6780,-13312,3420,-11874,11595,-4126
1800,7268,-14492,172,-14185,11573,4216
1810,5056,-17028,-132,-9486,12222,3726
1820,5244,-14360,1568,-3864,16009,-5289
1830,8556,-15612,5520,-3714,14809,136
1840,8436,-14016,6516,-4998,-2034,338
1850,10092,-14528,5996,-1065,2937,-4274
1860,10384,-13332,2404,2460,2366,-11001
1870,11660,-7416,11236,16241,2298,-9812
1880,10580,-7080,10520,17829,-6794,6194
1890,11200,-8372,8148,7874,-7094,12099
1900,7156,-16396,6116,21639,-12055,29602
1910,11780,-17488,-10012,10488,-3057,12186
1920,5980,-15560,5728,-2051,-2196,4675
1930,3832,-17756,2244,-6571,8361,2944
1940,2472,-18056,-72,-10927,13761,1821
1950,2432,-16896,3004,-7038,18538,-4749
1960,3992,-14812,3008,-2889,17059,-6429
1970,7208,-14276,5504,-6627,15597,-4898
1980,8448,-13640,6408,-7027,11312,-302
1990,8628,-18060,5156,564,-563,-949
2000,10160,-13368,808,-3951,191,-7467
2010,11760,-12460,1664,559,2727,-6730
2020,12884,-8312,4328,7963,422,-5408
2030,13088,-9516,7316,8547,4479,-1907
2040,12448,-6112,9372,11697,-2547,-2322
2050,8948,-3348,9620,11401,-2311,8583
2060,3672,-4196,13268,19573,-8433,28299
2070,-3044,-32484,1144,39,-28289,18924
2080,9684,-17156,10524,-4566,-183,-888
2090,6080,-14296,1124,-6344,-1961,-818
2100,7244,-14052,3192,-10390,16186,-3184
2110,10072,-12412,6856,-1993,8734,-17049
2120,8428,-6260,7568,-6322,6859,-6309
2130,8632,-9600,6452,-11155,9663,6807
2140,17068,-17400,17308,-3364,3668,-7147
2150,9576,-8420,5140,1929,716,-7302
2160,5176,-4572,2320,-1308,-2730,5299
2170,15292,-21096,14428,-10435,10781,15342
2180,11664,-16272,6308,405,-1314,-11890
2190,8596,-8368,5216,2524,1329,-6267
2200,7288,-7008,4176,-4308,-2069,9239
2210,12444,-20884,6196,-6420,1293,9005
2220,10888,-15960,3664,-8,-262,-10779
2230,4772,-7540,1660,-501,-1833,-7733
2240,6956,-9128,1084,1753,17367,6832
2250,17700,-20360,15476,-3197,-17086,-5385
2260,10980,-10428,3220,-1530,-6089,-8832
2270,5756,-6188,-2792,675,-1669,2185
2280,12360,-12600,4508,-1117,8518,8605
2290,17920,-19528,6744,-854,-7321,-7177
2300,9364,-8404,2424,1519,-2525,-10682
2310,3836,-3668,-120,2063,-1760,3031
2320,17148,-21676,15020,-13090,12167,22743
2330,11116,-15552,2136,-2950,-9903,-10006
2340,10496,-10328,6416,5813,6486,-15764
2350,8188,-5284,3488,9917,686,-2728
2360,9976,-8676,6528,15442,-5170,24603
2370,1372,-28524,-4908,5008,-32768,16760
2380,6292,-18644,9848,-1855,7458,178
2390,5160,-16264,3084,-5860,4398,-4159
2400,4732,-12832,2592,-5848,13934,-5862
2410,3544,-16128,9676,-11354,21463,-3734
2420,8256,-18412,11112,-4235,11007,-12284
2430,9600,-7360,8340,-5750,11445,-16461
2440,11648,-5684,12316,-1703,4288,-5644
2450,12100,-7524,10848,6425,-2491,-2778
2460,11500,-6640,10724,10498,-5073,3042
2470,3956,-6648,8620,12550,-15315,12284
2480,12616,-17268,4568,9837,-13911,23893
2490,10164,-17348,1704,1599,4595,6426
2500,8044,-15628,836,-2982,525,2240
2510,6224,-15624,2800,-3896,7150,1690
2520,5896,-13852,8492,-8699,8822,-4050
2530,7884,-16084,2760,1487,7173,-1042
2540,6176,-14244,2252,-2178,7315,-10738
2550,8876,-12332,9216,-4713,10627,-10940
2560,11496,-10764,11200,-6905,4702,-9902
2570,12992,-7460,9292,875,-52,-10523
2580,11348,-4432,7088,9114,-2472,-2048
2590,9452,-368,13216,27524,-10841,23103
2600,11556,-16252,-26628,19118,-27885,12948
2610,9132,-16532,8348,-7167,11688,3590
2620,8124,-14524,-376,-7319,3647,1809
2630,7688,-16512,816,-10052,8420,-1937
2640,12348,-16556,4864,-5680,10040,-12542
2650,11084,-9056,1892,-6171,-4452,-18518
2660,8388,-1088,-24,-1685,9781,2257
2670,11792,-17872,8504,-5856,17008,23636
2680,16684,-20040,4736,1363,-18790,-16042
2690,10632,-3396,6344,-1322,2743,-10492
2700,7844,-3712,1516,-895,1950,8547
2710,11164,-17312,3360,-5010,6032,21597
2720,17088,-20500,5648,719,-10503,-12851
2730,6020,-4188,3220,2427,1851,-14602
2740,6028,-1944,-528,3802,6988,8666
2750,19216,-20780,14784,-6110,7522,15961
2760,13512,-13712,8532,3696,-2898,-14424
2770,5424,-2304,5612,728,-9896,-8967
2780,9056,-2208,-1536,-1522,8361,16643
2790,15936,-24020,20012,-2163,1814,11263
2800,8456,-12444,3700,-5053,50,-10398
2810,10408,-12100,9792,-4858,7620,-9529
2820,10736,-6756,9776,6146,-4971,-1182
2830,6532,-2988,7972,18285,-7052,19982
2840,10032,-14128,7820,15924,-24567,24995
2850,5684,-14520,4128,-5375,16942,297
2860,5648,-17320,3308,-11743,3905,405
2870,3708,-19248,4280,-14220,15937,-1129
2880,5900,-16916,1336,-7520,11064,-3985
2890,6136,-14952,804,428,5662,-6534
2900,11036,-12968,7516,-8682,16053,-10876
2910,12624,-9952,7264,-3156,2438,-11514
2920,12260,-7012,8396,11696,-3406,-6530
2930,10292,-5148,6736,17572,-4329,4602
2940,11876,-9968,8160,14816,-4439,20147
2950,11344,-13840,760,12261,-21219,13813
2960,9868,-17308,-1180,-5884,6152,5330
2970,9372,-15972,2216,-4483,8146,-4422
2980,8576,-13872,3096,-11884,11757,-5408
2990,8164,-15752,3904,-14216,13021,194
3000,9164,-13228,7188,-13012,9964,521
3010,10756,-13560,5244,-4261,5724,-987
3020,11024,-13212,3708,-1206,665,-2975
3030,11992,-13584,4692,2925,743,-5800
3040,11636,-11032,5764,11633,-5013,-7674
3050,10148,-7368,4840,15128,-60,575
3060,7792,-8908,3528,12403,-2402,20464
3070,10148,-18060,2160,1897,-25614,19049
3080,5184,-18660,1672,-481,7533,10370
3090,2948,-17240,2624,-2926,7147,-3015
3100,3416,-17544,3508,-3305,12186,-8473
3110,5624,-13956,3016,-6450,11054,-7114
3120,6636,-14604,4580,-7686,10856,-1073
3130,7716,-15752,2820,-8610,8427,-435
3140,7640,-14356,2412,-3065,-1418,-3108
3150,11520,-12360,2140,5758,4042,-8176
3160,12104,-11832,6624,-960,4770,-10177
3170,13028,-6392,10880,4087,1487,-11645
3180,12312,-2152,8740,9885,-443,-2954
3190,10704,-3356,9208,12377,-3509,11344
3200,7100,-9884,11392,18466,-9865,30697
3210,11356,-18808,-5540,7984,-6022,19260
3220,6820,-17292,3768,-1342,-5986,4744
3230,5072,-16632,2924,-5480,5178,1793
3240,2140,-16716,1620,-9988,10363,261
3250,5656,-18036,6836,-11824,15577,-3950
3260,3556,-16756,-812,-1351,12011,-12879
3270,10956,-12796,4940,-3522,19622,-8401
3280,12276,-9908,9488,4220,4353,-8872
3290,12808,-6504,9364,7401,-844,-7027
3300,10712,-4168,9704,8305,-4365,1433
3310,7600,-5948,7528,7738,-9405,20170
3320,8640,-20144,1300,-233,-31260,22282
3330,6384,-18092,984,-2921,7707,5954
3340,4296,-16112,-2744,-4823,8388,3514
3350,5804,-17508,-96,-3404,8966,-3834
3360,10380,-16188,1556,-5121,13097,-13288
3370,12180,-10204,6212,469,3444,-17166
3380,6620,-3784,2192,-1422,2179,3721
3390,14728,-13668,6664,-2520,6106,14102
3400,12548,-11212,2652,2930,-1615,-14689
3410,6936,-4148,204,2993,1740,237
3420,11624,-11428,8272,1526,13124,11926
3430,18012,-16092,13140,-765,-2928,-4271
3440,10792,-8696,5796,2632,-5382,-8476
3450,5812,-4272,1212,1572,-380,2139
3460,13204,-15908,15136,-5988,21358,14037
3470,14332,-14580,11024,3050,-10946,-9850
3480,7348,-5060,6232,3334,-6369,-10655
3490,6444,-2412,4,-208,4736,7762
3500,17556,-16708,18896,-13012,11767,11618
3510,12072,-14176,7760,-649,-1271,-9928
3520,9936,-6164,9824,8463,-1812,-14427
3530,9176,88,8268,11248,451,-2842
3540,6556,-1724,10304,10082,5544,23931
3550,3268,-18988,5492,2475,-32768,32767
3560,10020,-19508,12836,6423,6225,8189
3570,4388,-16164,4184,-376,-602,-7544
3580,6968,-10196,5716,-8471,11112,-6369
3590,6328,-14352,6124,-14676,11956,-2134
3600,5812,-16692,7892,-14387,13279,-5644
3610,8300,-15376,7140,-12569,15249,-9583
3620,11592,-10892,6572,-8802,9958,-10516
3630,12408,-8200,9452,754,10321,-9968
3640,11052,-4632,10304,10903,2186,-3465
3650,7688,-3476,11756,8465,823,14065
3660,8060,-10292,11916,6343,-15596,29185
3670,7792,-21096,-5788,5886,-11166,15009
3680,4392,-17216,6156,-3242,-4939,306
3690,3524,-17824,1644,-5632,4520,-252
3700,3984,-16664,4116,-7897,5877,-3879
3710,4512,-14816,6436,-11254,13499,-5207
3720,6264,-18916,308,-3665,9196,-3790
3730,9980,-13044,660,-1243,5522,-8480
3740,14884,-11912,6736,3994,7481,-12128
3750,12352,-7580,5624,8972,-2012,-13421
3760,12476,-3168,7292,15256,1351,-670
3770,9804,-2944,5344,16644,-6494,13181
3780,9520,-15836,-5988,8991,-31915,29168
3790,7356,-18852,4140,3172,-1709,8305
3800,4852,-15428,2512,-2305,2678,1120
3810,5012,-16428,3548,-4957,18853,1435
3820,5920,-14588,3752,-5098,10858,-2341
3830,3460,-14596,2888,-4466,10408,-3752
3840,13312,-18404,12112,-12066,19152,-5885
3850,9724,-11264,4256,-1238,-45,-15246
3860,12356,-6676,7176,5724,6432,-9627
3870,12852,-4576,8228,8433,-1384,-1569
3880,11624,-4440,8880,9982,-1903,5475
3890,6984,-5728,8768,12529,-7528,22278
3900,10872,-24048,492,9946,-16402,21358
3910,6372,-16704,7184,-3894,1018,101
3920,4848,-15860,520,-6942,7021,-4013
3930,5800,-14544,8176,-8946,12614,-5173
3940,4472,-14464,5120,-8031,12628,-2910
3950,9416,-20372,9092,-11630,17956,2302
3960,9520,-11332,5952,-6419,4966,-15381
3970,11420,-9452,6104,-3481,6570,-10889
3980,12988,-7828,9552,1005,8467,-6723
3990,14076,-6608,7372,3393,1232,-4152
4000,13220,-4860,5912,6394,-3442,-1943
4010,7888,-4244,528,772,-4342,9184
4020,21512,-14504,13764,-11601,3616,10221
4030,14812,-13032,5324,5796,-3322,-8326
4040,5752,-4164,1876,7287,-3548,-3303
4050,9484,-9828,5008,1325,17271,17901
4060,18004,-20612,14284,-9246,-10843,2952
4070,7488,-8860,4536,4364,-1235,-12126
4080,6088,-4736,4776,2125,3568,2251
4090,13560,-18816,12112,-13253,7045,16019
4100,10980,-15640,11524,5105,-5603,-13197
4110,5052,-5804,4356,2912,-2072,-1524
4120,6504,-8180,4004,-1944,4503,11966
4130,12500,-23252,7368,-7867,-2558,2194
4140,4372,-6012,16220,-3404,-2080,-5639
4150,5684,-6848,14952,-6024,-906,-5934
4160,7716,-6952,15408,-3605,-8544,-700
4170,7116,-7740,12584,23,9340,-32
4180,5408,-7384,19172,4193,2767,5655
4190,4216,-6516,14540,6053,1520,7376
4200,5548,-8020,12556,-3427,1609,-2250
4210,4644,-5612,17872,-3264,-856,-6073
4220,5536,-4272,16312,843,-7934,354
4230,7208,-6828,11112,-5015,-18486,9183
4240,9008,-8720,15344,-65,-4552,3850
4250,8364,-9700,11920,-1471,-1689,2642
4260,9236,-11088,11416,-1693,-2881,741
