timestamp,ax,ay,az,gx,gy,gz
0,4432,-12188,-516,-9917,8689,-3380
10,4548,-6240,-72,6694,-6229,-2549
20,-252,11552,11444,-164,9803,5368
30,-4364,11048,6636,-12256,-14595,-9483
40,7328,25096,6460,-12335,-16672,-1597
50,3932,4828,-10868,-770,1710,-12194
60,3116,32767,5904,24712,10090,7544
70,4820,17552,6352,-163,12640,3401
80,-1312,1428,10360,-5532,-8258,7616
90,17888,32767,14208,-19991,-8329,-3544
100,-388,9032,-8624,-12539,-8534,1498
110,3348,25524,-876,21255,15354,-4217
120,3048,20768,-48,13121,14858,-3283
130,-2064,6340,8072,6702,21458,6039
140,8324,26200,-3652,-7440,16111,-3150
150,1948,11532,-5636,-2366,18808,3599
160,-13436,18240,5552,6037,32767,3773
170,-1988,20192,7936,14805,5179,-1161
180,-656,13240,5772,1481,12551,6245
190,4588,24468,1704,-7692,-7726,-2080
200,6808,20808,7724,-11785,-8598,5181
210,4660,5144,-13964,7077,12486,-3509
220,484,30744,11820,23634,14950,1638
230,5432,19360,8640,2009,12788,476
240,-76,504,8392,-2467,940,9632
250,12824,27372,15456,-8095,-2166,621
260,1452,2416,-7332,-3284,-1174,-1609
270,2312,26284,912,16929,19522,1386
280,3768,19584,10416,2936,7340,1314
290,2668,1616,11804,-4194,-13228,-948
300,11656,29268,17640,-21697,-6238,-5120
310,2128,13584,-8472,-7145,-16893,-8476
320,2720,27416,-3100,17475,19201,6421
330,7704,19444,-156,4599,6225,3891
340,-248,352,12492,5086,266,3047
350,11816,25832,9620,-14529,3722,-5909
360,-1048,14188,-6532,-14298,-16366,1114
370,3672,6820,-13292,7280,12371,-4461
380,6888,29212,5804,15354,6362,-360
390,-2124,3580,9872,-469,7463,10689
400,7648,29332,9384,-7899,-7541,-10810
410,-844,13964,392,-11602,-12825,1892
420,1912,3904,-7480,-1970,-11129,-7633
430,11240,29996,18816,9801,11788,-6028
440,1052,9580,5584,-4691,-11919,10155
450,-6624,3976,2816,-10057,-20556,-5086
460,17560,30516,4204,-15985,-21059,-6127
470,592,10160,-1180,-10863,-16899,-6219
480,6548,19704,-3684,3008,-4449,-6045
490,8424,24692,7828,12163,-1780,6761
500,316,11288,10056,-3595,-1450,-362
510,928,22316,2196,-13002,-29426,-8923
520,1660,20152,-1984,-14263,-22001,4209
530,3852,5240,-10256,-2878,386,-9250
540,1384,32767,5780,24577,15205,4404
550,3104,13688,9248,2294,6833,1442
560,-432,3180,7928,-7492,-3411,4239
570,10184,28980,9512,-15853,-13164,4375
580,1696,4836,-6900,-5228,-6404,-1854
590,3476,32767,3040,24812,14720,-4661
600,6620,19804,1712,9322,20336,-4862
610,-1400,1480,14008,-2378,343,5307
620,9332,32767,14368,-20601,-14562,-3634
630,1988,11976,-7324,-12017,-11330,-697
640,-3648,16344,-4924,17469,14963,-7507
650,11248,26608,1680,12146,14774,-5672
660,-5604,4500,17160,-8303,6840,8062
670,11468,29932,9528,-20050,-19722,-8263
680,672,13232,-6312,-11634,-13135,4413
690,1768,6128,-10896,7402,7985,-4381
700,2932,32767,1596,21018,15473,-1168
710,-1536,12008,5160,1770,21203,1663
720,1356,14024,16808,-2560,-5261,-1853
730,11884,19712,-5360,-5310,2437,5673
740,-1216,4748,-6548,530,13625,-1033
750,-14496,32268,5404,15422,32767,2688
760,-1964,15556,7352,15584,15823,-1298
770,-1836,16700,2464,-5436,24417,1669
780,-2468,11728,9620,-3093,5969,148
790,10188,23852,11656,-8687,-8778,6719
800,2576,9864,-5068,-3437,-10155,2580
810,404,12428,-9416,13495,18651,-3287
820,2104,27796,6976,11820,21853,-1950
830,1684,6172,12128,711,5267,7027
840,9508,29296,2996,-9549,10804,-5831
850,220,16580,-5588,-12383,-15385,7417
860,-248,11872,-7872,18893,15482,-4498
870,-344,24260,7296,9763,17024,1878
880,236,11052,7748,2363,8124,-394
890,2492,16872,4032,-9038,-5933,-12190
900,1500,19148,-112,-12078,-19737,1639
910,5176,-12,-14852,-842,7853,-5290
920,4372,31444,7788,13670,4698,4303
930,-572,7980,13632,-2676,-2554,5479
940,8900,24456,-1412,-13343,-7967,-12333
950,-2176,14860,-5980,-13945,-13329,6230
960,2532,652,-16712,6295,10155,-6489
970,5956,32767,6924,14923,5800,-1718
980,-1000,7032,13456,1759,7716,9254
990,-252,26564,9348,-8825,-10011,-19553
1000,-3240,18004,-4232,-12047,-18630,7935
1010,516,180,-5576,-4148,-17086,-4586
1020,18488,29920,12444,12987,-2911,-8331
1030,3360,11052,2064,1201,-1608,6658
1040,-1584,6608,7672,-4762,-16778,4888
1050,13060,16848,-5104,-19092,-16435,8229
1060,4992,12248,-24,-8833,-20231,14045
1070,10232,14724,-8816,-2887,-21110,9860
1080,12532,13528,-4344,-2406,-7187,4341
1090,7164,5372,-5676,-5436,-674,5552
1100,11140,10460,-5368,-4792,-2708,-2113
1110,16372,14572,-3668,-6153,-1493,-4476
1120,11308,9956,1184,-1811,1822,154
1130,9488,7548,-7800,-3816,-9565,2476
1140,12408,17304,-5484,260,-823,-4198
1150,6216,13364,-6788,4666,13332,-2877
1160,8348,13152,-5760,5981,11330,-3637
1170,7604,15084,1104,3498,9567,100
1180,11024,11256,-1232,-1179,6398,-2055
1190,10404,13500,2892,347,2681,-837
1200,9564,11852,2836,230,830,-442
1210,10028,13360,-32,-1778,-4073,-1114
1220,9440,14068,-296,-2357,739,-457
1230,8740,12180,424,-1735,6065,-1211
1240,8984,13596,676,-244,2033,-669
1250,9672,13740,1500,-451,925,-433
1260,9032,13052,-1288,-678,-415,148
1270,8972,13632,-892,-1046,1462,-499
1280,9408,14084,1644,-743,-102,-315
1290,13700,24472,1224,-13016,-12518,-8136
1300,8756,21884,-3708,-4642,-29653,226
1310,2036,13604,-4896,-872,-3614,-1298
1320,4356,27732,-10220,5082,-12690,7448
1330,-3580,6440,17456,-6092,-15265,446
1340,13544,28656,12108,-14583,-208,-5177
1350,5064,5936,-13656,7444,7724,-9084
1360,3476,27932,5040,14704,7872,3974
1370,1344,4872,17624,-140,-5611,2415
1380,8452,31604,3276,-8057,12016,-3096
1390,-156,5716,-11932,-3900,-305,-4462
1400,11792,32767,14676,25131,4778,-3021
1410,1980,14804,4000,4548,10205,7490
1420,8952,18660,-5476,-10686,-2062,-24581
1430,4100,18024,4584,-16334,-9678,6957
1440,632,-436,-8576,4868,-1179,-2559
1450,7180,28296,-1208,14611,9208,807
1460,1572,6968,12172,2851,-771,12124
1470,14912,27088,-2728,-5363,20192,-2484
1480,3496,13416,-2452,-2653,21529,373
1490,-8820,8620,2048,7406,17891,5300
1500,-4540,21716,10080,6381,22674,3804
1510,-3892,13944,3996,2803,17265,4543
1520,4292,10824,7472,840,18991,478
1530,7380,24824,-2012,-7979,1871,5415
1540,-2076,5516,-4880,14163,24045,218
1550,152,32767,1112,10690,10734,-854
1560,-4176,3236,14812,2526,-2864,17825
1570,6536,26084,6448,-3538,11099,985
1580,-440,7564,-15668,-9752,-12401,3226
1590,-4788,32767,7168,27449,21128,-1578
1600,1140,16408,11228,-1889,-4913,8105
1610,-740,20732,516,-9026,-4087,-13024
1620,3304,23120,-3308,-15460,-20824,4088
1630,4016,-1724,-12740,6030,7933,-2865
1640,10412,30068,8296,3711,13489,-1663
1650,-4048,-408,14460,2212,-8272,13430
1660,10312,28116,3936,-7957,5320,-1383
1670,-1304,16608,-9916,-12837,-19578,4879
1680,448,13616,-4728,13259,3091,1931
1690,8472,24840,6228,9696,7090,1985
1700,-6368,368,17260,-411,-18193,16257
1710,14348,29516,6496,-19427,-4356,-5750
1720,-160,16332,-4372,-14747,-21392,2164
1730,1172,16324,3928,8682,-12119,-1099
1740,13208,24524,-28,3757,-9291,-1217
1750,-5884,8160,9856,-5833,-16971,9444
1760,7300,26748,-2368,-11470,-17955,-17962
1770,3172,16520,1532,-16916,-11818,-4900
1780,2716,5088,-8588,1081,-8128,-2472
1790,5460,26620,4900,5429,-533,424
1800,-564,13960,7036,4418,319,2572
1810,8096,27984,-6616,-3603,-11437,-7605
1820,1460,21972,-1656,-18554,-20643,3848
1830,6076,4372,-9164,9773,7768,-5319
1840,1516,32767,6260,10853,10604,-2253
1850,-2076,5808,9220,-794,9441,13861
1860,13072,28500,1052,-9123,6090,-7092
1870,820,15116,-1116,-9413,-15686,2030
1880,3404,-224,-4564,1200,7194,-1979
1890,5884,32767,2124,11252,12017,-2958
1900,76,8708,13648,3105,8179,6220
1910,16608,20324,-632,-18874,3278,-15454
1920,2572,17844,-4300,-15198,-20145,66
1930,1812,2404,-8784,2772,6409,-4775
1940,2192,32767,3760,17749,9800,1957
1950,2168,9136,7948,2781,-4674,5673
1960,3580,28772,4360,-12174,-9017,-14021
1970,1300,20820,2892,-14930,-17818,4366
1980,64,6024,-6620,-3156,-10482,-4160
1990,13376,23280,9264,8645,-2384,-5687
2000,4948,15796,596,1320,-14141,6496
2010,-5228,3320,8348,-7699,-22113,11732
2020,9508,30720,-5340,-24204,-22229,-11571
2030,-208,14844,-4096,-16282,-26206,1846
2040,4680,22960,-3208,4108,-2800,-5948
2050,4804,18452,-68,5549,3441,5187
2060,748,2972,11816,1302,-12818,4958
2070,13756,27300,9720,-14826,-1761,-820
2080,2504,12888,-12700,-13113,-16412,2220
2090,412,11852,-4840,12790,7660,1629
2100,3412,27468,6744,8911,15251,1595
2110,660,7468,16172,4220,4658,10544
2120,11308,19876,-1356,-9431,3396,-16544
2130,4756,19856,10452,-14316,-5331,-1966
2140,2516,4336,-12236,-898,-3171,-12813
2150,9268,31476,5316,10228,13637,2507
2160,-3248,11368,5456,5908,9540,10583
2170,1052,23144,-1544,-8510,-12271,-18947
2180,4156,23832,6796,-23085,-11123,3753
2190,2940,2860,-14872,3298,4751,-4986
2200,5684,32767,5168,21182,-2456,1101
2210,480,11096,9360,1494,9276,8630
2220,1288,5844,4104,-7297,-12771,-5251
2230,4788,26636,8504,-17664,-22467,6877
2240,-1220,5312,-6812,-10101,-14693,-3516
2250,10404,30396,1404,13618,-6827,-6771
2260,9096,16564,3764,1439,-3579,6630
2270,-3280,2796,10592,-3060,-19400,7516
2280,8480,29004,-8080,-22287,-27358,-11695
2290,88,13224,-1212,-17708,-19625,545
2300,3940,19472,-8080,-8391,-15640,-11729
2310,3616,27820,2020,13041,10003,4599
2320,464,16324,1868,5439,9739,5296
2330,-356,7272,9472,-6828,-26828,-3892
2340,6772,29780,5884,-21536,-15948,4369
2350,4380,2624,-8644,-3007,5696,-10476
2360,684,32767,9576,32767,10475,5023
2370,3548,16732,11712,2891,12403,5340
2380,-380,388,1072,-7854,-15032,3528
2390,5224,24872,12576,-16305,-15437,5180
2400,2084,1836,-12824,-5579,-1718,-11171
2410,1896,32767,9748,22468,18097,3928
2420,476,11308,9332,3029,9711,9419
2430,-1116,13364,-3448,-17097,-5317,-15368
2440,3516,18636,6296,-18104,-14246,692
2450,2736,808,-12400,2240,4702,-7653
2460,4880,32767,6724,19464,2063,392
2470,976,10924,12648,2286,-1633,10447
2480,1400,25124,1924,-13782,-1943,-20789
2490,2232,20028,3216,-16681,-12747,4747
2500,-1108,2120,-9780,-3111,-6124,-11368
2510,12296,30728,15140,19039,2706,-6799
2520,944,9664,5756,-1697,-12432,14792
2530,-5300,16776,3964,-13225,-30369,-5385
2540,12080,23876,-1224,-13671,-13001,-1049
2550,896,12844,6020,-12513,-18292,-22
2560,3544,10036,-8944,-4638,-12979,-8674
2570,6748,25756,-456,9835,2760,2899
2580,4460,16864,4900,2534,6167,-23
2590,-3040,5724,3404,-12125,-16126,5985
2600,8412,28632,12272,-20699,-19401,-1195
2610,6868,4480,-12924,546,3046,-5852
2620,-3876,32767,4768,25365,19766,3293
2630,4968,19304,200,534,14186,2351
2640,2016,3596,5444,-1218,-12101,-65
2650,10332,25880,12528,-12433,-1219,-4332
2660,3012,13644,-1168,-8539,-7114,-4871
2670,3084,32767,2180,24481,21909,-5162
2680,5936,19208,232,3901,3192,5163
2690,-5872,-2524,10604,-2061,-14911,3941
2700,9568,32767,12148,-21026,-11458,-3216
2710,1308,2128,-13612,-8648,-6796,-7682
2720,2140,32767,9144,32767,18256,3114
2730,5736,16880,5452,4139,13123,6846
2740,-4728,-2628,9188,-11322,-13263,-2980
2750,7516,32767,10780,-19901,-23430,6615
2760,-1100,4388,-6772,-9795,-17586,-4420
2770,11084,32767,21592,21736,-9921,-6050
2780,11536,14824,6316,-1705,-4132,11873
2790,-10132,1872,10000,-12279,-26185,-4661
2800,9128,32767,-6264,-22454,-25173,-10737
2810,1656,12984,-6596,-12462,-19940,-5646
2820,5632,32416,3044,20529,-1191,-134
2830,9012,18060,4000,2518,7533,10124
2840,-3576,188,6504,-7059,-16345,-6739
2850,6332,26172,2360,-14500,-10411,1272
2860,3884,4128,-10180,-3886,-4495,-6701
2870,9080,32767,11200,17110,7836,-1410
2880,2444,16124,4860,5467,13188,6928
2890,-4220,6008,2936,-5895,-4984,-6128
2900,1520,22848,9984,-14089,-17229,5985
2910,-1084,-2576,-9268,-5315,-1662,-4857
2920,7968,32767,7548,17579,11250,-4199
2930,1780,14084,3300,-3654,13934,8257
2940,-5172,-1356,7388,-9440,-7036,-8759
2950,4484,27308,8304,-18194,-12205,3030
2960,1900,4812,-11024,-5704,-4434,-8555
2970,6584,32767,2076,32767,15669,5203
2980,4056,12900,796,2305,5196,10099
2990,-1772,-3572,5692,-7612,-17216,-746
3000,8572,29616,4808,-12754,-13218,-4738
3010,2332,9832,-5992,-11035,-20638,1089
3020,4068,23744,15092,16029,7811,-5320
3030,6060,21036,2380,4737,-19533,2169
3040,-3112,3900,10300,-2004,-26076,12115
3050,10988,28940,-1324,-21987,-26208,-16261
3060,464,9796,-2788,-11540,-16889,-1990
3070,4476,21668,1180,-9957,-28858,-1694
3080,6368,14528,-604,3876,899,-3699
3090,3952,25104,-3500,12257,-761,7736
3100,3712,14856,9416,-1381,-452,83
3110,-4460,10756,-500,-14129,-4327,-5551
3120,4420,19596,-156,-10345,-13033,6244
3130,1544,1088,-8408,3036,-596,-6082
3140,1732,28088,-812,13594,26295,-2005
3150,2248,14640,9140,2198,9779,3505
3160,500,264,2424,-12612,-16796,6174
3170,9328,27512,6848,-15357,-18546,-715
3180,2312,7784,-7068,-7,-4241,-13853
3190,3832,32767,9144,32767,23609,2428
3200,4144,14220,4572,3136,12962,3737
3210,-5856,-1524,7876,-11230,-15975,1553
3220,6280,32767,6024,-17650,-22663,5479
3230,728,1692,-10996,-7034,-5843,-7016
3240,4404,32767,12404,30234,13859,3342
3250,7412,16100,4960,2461,13273,4450
3260,-5576,-2596,10260,-6890,-13646,-296
3270,12608,32196,9652,-17853,-13451,2044
3280,-1752,7772,-1812,-14131,-16552,-2980
3290,7172,22936,8268,16448,-2656,-8132
3300,9976,24436,2092,8719,-5061,2735
3310,-8436,3308,15680,-2026,-18290,8626
3320,8536,32767,-476,-23940,-22991,-8072
3330,140,20256,316,-17291,-27811,-628
3340,-52,5740,-7748,-4457,-534,-10559
3350,4232,32767,-3412,21912,-2464,100
3360,1304,12308,8904,-3671,-4354,7861
3370,5392,23848,-164,-13244,-19059,-13655
3380,-696,20184,-3668,-16016,-17814,3463
3390,3772,-260,-15980,5441,5517,-6294
3400,3880,32767,5504,18071,13708,2589
3410,-1672,7660,13780,-758,3156,8571
3420,936,25440,1160,-10515,-9181,-11850
3430,1428,21404,0,-18002,-13591,9775
3440,-784,-1228,-17544,5490,5268,-7324
3450,1856,32767,9888,16073,14330,-6199
3460,952,12100,9820,-2538,9438,6121
3470,5900,23308,2360,-16985,-9164,-13721
3480,4028,17828,-3820,-14489,-12634,3438
3490,712,260,-9736,551,-6935,-6359
3500,5784,30936,-132,20204,13868,-2456
3510,2448,13504,3508,-598,7983,4569
3520,-1740,12360,9280,-11510,-14727,-5246
3530,8404,22056,6112,-17596,-5715,5718
3540,-576,3764,-6648,-8295,-14583,-2251
3550,7416,27772,13404,19375,-3914,-8156
3560,12724,21384,2808,2784,-5829,7260
3570,-4608,3144,7852,-7893,-18181,11071
3580,10768,25264,3584,-32768,-29598,-5275
3590,4596,17672,-1140,-23850,-18069,-2277
3600,-136,4148,-11672,-6230,-3326,-9668
3610,8492,32767,-3352,18847,-2944,-2103
3620,-788,12960,14092,-3322,1587,4981
3630,552,18888,-5024,-14954,-18418,-10441
3640,5600,21720,-1200,-16141,-15228,6559
3650,2808,1684,-11000,1581,7805,-4715
3660,-232,32767,4968,29072,15734,-251
3670,1360,13264,7040,1035,15539,5097
3680,2376,1852,4284,-6818,-10901,-892
3690,8420,24976,8040,-13798,-798,2423
3700,2144,5684,-7928,-10154,-13624,-6961
3710,4392,32767,2068,32767,31786,-251
3720,7572,17400,2832,3409,10736,4523
3730,-5716,-1760,10112,-6570,-12122,1369
3740,14032,32767,12028,-20339,-14427,1820
3750,704,7464,-8076,-13833,-5802,-7596
3760,4148,32767,488,32767,19670,-929
3770,8664,21192,5124,11540,12999,4015
3780,-6784,-2232,14672,-4256,-12509,62
3790,11540,32767,19708,-21655,-6485,-878
3800,-3496,11072,-9360,-15686,-22698,-1743
3810,-4000,15228,-4392,18156,16645,-5134
3820,12888,29684,-248,11810,-10140,-648
3830,-8260,-440,10696,-8487,-17862,15598
3840,10072,32767,-5692,-13456,-30869,-12608
3850,-380,21624,1524,-20725,-22100,3485
3860,-1772,2292,-8700,-3868,-8017,-10080
3870,8716,32767,-2120,19313,-6153,138
3880,2328,13632,6208,2467,339,6983
3890,-5176,5684,10564,-9442,-17344,-1838
3900,5484,31668,-1096,-21190,-26642,7036
3910,1840,3140,-7852,1494,2035,-7438
3920,2248,32767,9480,30183,18713,3796
3930,5840,15292,5608,5519,9513,6592
3940,-1796,-776,8852,-3811,-7229,-1777
3950,15020,32767,16464,-16948,-7710,-535
3960,-560,5364,-14404,-14381,-6728,-5586
3970,-696,32767,3428,30183,24524,1786
3980,3868,16360,6816,6960,14362,7307
3990,-4344,3432,15228,-11142,-8553,-3500
4000,8700,29128,5372,-19044,-22935,3428
4010,1208,568,-12212,-6278,-2207,-13284
4020,7960,32767,6108,27799,7059,1760
4030,6588,14172,7864,2146,9170,6425
4040,-3552,-380,7468,-11620,-12837,1550
4050,10940,32620,8976,-14253,-18040,4708
4060,-1068,6768,-4956,-10732,-12620,-4969
4070,-1524,13036,6604,16545,9473,-3123
4080,8624,29164,-1568,12016,-16954,2860
4090,-8316,1044,10936,-1961,-21741,15284
4100,13316,29392,-4240,-23514,-23889,-7337
4110,-3720,10936,-7044,-16461,-21705,6783
4120,2808,18504,3220,-10699,-19008,845
4130,6824,28748,-6628,6320,-6259,-12874
4140,4792,27800,4076,15803,-4356,11519
4150,-704,8204,10196,-6079,2663,1221
4160,3224,28256,3484,-10881,-25282,-8787
4170,2508,20456,-7180,-17398,-10982,5403
4180,880,780,-10428,12108,6486,-3612
4190,1532,32767,6296,16171,15420,-1550
4200,-4712,4292,11312,383,12964,11987
4210,11320,24852,-240,-12046,-4296,-11403
4220,1184,17988,-156,-13912,-8464,-1092
4230,-360,-3276,-17172,2333,4926,-4579
4240,9720,32767,5808,15002,3331,1247
4250,-5800,-1168,17348,359,-3012,13359
4260,17004,32767,15608,-26951,8420,-2869
