ax,ay,az,gx,gy,gz
-1568,15272,4888,1532,9608,-1295
-1516,16012,-952,418,-7705,723
-1328,17012,-5728,-2215,-894,993
-1616,16384,112,-116,-5555,1018
-560,16516,968,-2419,-5168,-54
-1244,16176,-5952,-2664,-12237,4665
-9424,12828,-164,6898,19051,-8693
10280,22396,12216,-8059,9133,-10133
-7520,8876,-5908,-7150,12133,-3135
5960,19728,10228,-3579,9553,218
-11760,8468,-10124,-6089,8941,-6560
7864,14376,9556,-2753,7268,7516
-8592,11148,-12120,-4775,-12869,1199
5824,19656,-5280,312,15383,-974
376,15376,-168,9894,-28254,1523
-1740,16288,-2744,-657,19066,-8064
3956,18624,3912,378,-7841,156
-6352,11652,-6784,-5389,5468,3107
-640,13348,-7752,-138,9707,1996
-956,16480,-3512,-1809,-32185,5958
-2992,18092,-4952,-3785,23317,-8693
2432,17820,11396,4958,2852,-2555
-13564,10004,-14060,-5349,4716,3931
-1640,18764,-28,6155,10429,1909
-12616,12608,-8900,5055,-32768,16199
2028,19572,-5020,7412,25914,-10478
-56,15624,-6544,5405,-32768,10786
2536,20732,-4220,-8486,19484,-14035
2068,18112,-3024,-1690,2368,-2195
-8748,13468,-7956,3109,-13501,11702
5872,20944,-11060,2099,8949,-1137
40,17896,3148,-25,-19041,1320
-11244,10268,-2828,-7408,22733,-5787
-4448,16648,-5420,7594,18641,1183
-2644,16360,-5272,8700,-32768,12743
1632,20680,1604,-4283,23512,-11310
580,17224,812,-2962,-13593,2263
-8772,7688,-6912,-7283,24713,-10503
-6144,16164,-3836,2255,11721,702
-2868,14456,-9388,11412,-32768,9565
1592,17568,-412,-5247,3969,1951
-4808,14664,8468,1663,-2731,2796
-7784,10636,-11052,-1312,590,-785
156,15296,-3344,-7295,9160,-805
-5248,13972,-9048,8798,-32768,6681
-736,13960,140,-4588,16614,-6317
-3508,14668,1184,2498,-20932,2587
-960,16480,-1984,-4781,28096,-4329
652,15252,-784,-5902,-2661,-1042
-12172,14068,-11948,-3944,-3836,5681
-3984,16804,-13880,6144,522,2679
-5088,16048,-1200,5505,-32768,5969
-2688,15536,-1744,-2842,20757,-5266
1464,15864,3352,-2555,4814,2992
-7992,13852,-12668,-2960,-9447,4597
-2044,16312,-10568,2036,5986,532
-688,14968,8192,-1563,-10791,5241
-10660,8764,-11392,-8964,21154,-9023
3984,19976,-9404,2989,3213,5232
-6472,16444,-5952,5808,-24991,11729
-1600,20140,-172,-10545,25089,-18646
-2544,16308,612,5994,20773,5035
-6228,12824,-8936,-952,-31206,632
-1556,17792,-3124,16,21222,-3626
-204,15596,5440,-2894,-368,1396
-1468,16064,-18944,-2792,16423,-7119
640,15056,-7424,-897,6818,708
-7360,13572,-11672,-3981,-23574,7445
-404,14296,-2844,287,11924,-5080
-2280,15320,-2916,3946,-30556,11141
-3824,13016,-4304,-3572,13754,-4135
292,16908,-1348,1088,15996,-2274
-3248,13856,-9692,1685,-16525,2648
-2492,14232,-7700,-5768,14815,-6003
-436,15780,12564,-4602,14350,-3562
-4772,11564,-14784,-2593,-3115,2928
-584,14796,-7460,-4167,8956,-2122
-3024,12064,4148,3324,-25192,7190
-1364,16500,-1148,-4022,-10423,5336
-2460,14076,-4936,-58,-4956,4595
-1152,15552,-4012,-3733,6137,-4864
-2032,15224,-2940,3294,6736,-2349
1916,19460,-5400,1222,17892,-17566
-5136,11036,10692,-13199,14039,-1137
-8336,12196,-11964,-4877,13108,-3195
-6632,13864,-6364,-3108,14876,-3730
-9608,12884,-5888,-853,-23502,3668
-3180,14768,-8412,5565,-2341,19465
-4052,13188,-3996,6463,-32768,-1714
848,25340,-16108,15000,13986,14557
-2532,17892,11536,-4794,-3341,-3610
8572,17292,-14276,6242,16866,10220
-5308,9680,888,-5555,9154,-1520
7892,20420,-14044,-6964,-8197,-14427
-2852,12748,-5760,114,12995,8888
3280,21056,-11564,5560,-32557,-22719
2060,24076,-3320,5308,-1564,30912
-5148,12024,7240,-10410,-12774,-7657
1136,21048,-8132,4527,26878,5817
-9228,12216,4512,-1484,23486,-9210
400,17576,-4788,7137,-19477,8409
2356,15372,-7912,-226,10657,-5807
596,12684,4104,1930,-11167,4772
-6460,9644,-10496,-7066,13143,-5626
320,14804,-6788,-237,3829,3321
-7208,13168,-7884,-488,-30026,2359
-1436,15436,-4472,-1192,11357,-5210
-100,15668,5100,279,-12957,7323
-6180,12052,-8808,-3167,23183,-5137
-4932,13248,-8604,-582,15311,636
-7748,12996,-11084,587,-22475,1605
-2892,14548,-6368,3869,10066,-1056
916,18516,-320,4598,-20515,991
-2816,13888,-6160,-386,21737,-1614
4928,18096,-720,1902,-6484,1896
-7472,11128,-13220,-2742,12051,-4049
-1524,15432,-3440,-7633,12709,-5035
-7640,14140,-10156,3468,-28602,11287
-1232,14696,4268,-7882,18098,-4451
-1608,16500,-220,2464,-23037,6445
-1516,18616,-5428,813,31409,-6973
3104,15188,3892,7903,-10349,6404
-8348,9084,-10060,-10043,13102,-14805
340,15564,-9028,-6419,6181,5536
-7192,12896,-7708,-8757,-6956,10918
3184,17612,-12928,-756,14552,-2256
-3748,12632,6488,662,-12351,1147
1356,15536,-5528,-2043,4045,6623
-1728,12524,-5064,-2601,20652,-5680
-748,15216,464,-2853,-16072,-4890
-3804,12044,-7072,-6292,26366,-6033
-92,17660,532,-6086,16174,4206
-2176,15956,-4656,3747,-32768,9801
144,14884,-2840,-1394,19095,-9246
1520,14740,8428,885,13210,20
-2264,16816,-12992,-6035,-7521,4240
2268,17688,-4232,2343,10543,-3745
4324,17412,-676,10931,-30029,4800
-3632,11852,-3532,-2828,24000,-2208
7960,18636,4376,-3782,5856,-2793
-4096,11496,-11656,-2032,-460,2963
1288,18024,3176,-2956,11657,-5682
-3672,18444,-9704,839,-20873,8196
-848,16156,-1112,-109,17637,-8031
1912,15768,3104,3072,-18559,5058
-3520,12200,-8500,-2190,25165,-4035
5972,15548,3704,-3528,5486,-668
-3220,18248,-10120,-1494,-13056,10849
4,18120,-2976,3253,15277,-5989
4212,16140,-1356,3511,-29843,4190
-5548,13096,-4756,-1806,21399,-5056
11404,18484,2524,-6124,10335,-2742
-5472,18260,-9588,1712,-22329,13709
3404,22280,3868,2977,18791,-9484
2396,17692,-3296,7877,-31204,8508
3876,20796,-3208,2473,23972,-14339
4464,17564,4592,-486,-11853,2444
-4424,9728,-2088,-5151,23210,-7590
1984,15832,-3876,1074,19652,-3745
-8248,12488,-15084,-2964,-16090,9920
-448,15852,-7072,1106,3986,-84
3336,17884,-4296,1751,-27404,8087
2248,17696,-5876,-2681,14806,-4901
3832,14944,2768,1703,-18546,3066
-2836,12912,-8960,-4749,23796,-7310
8848,19832,-208,4661,-10225,4106
-15012,12380,-11100,78,-10737,16021
7800,17460,400,-10712,6727,-9241
748,16644,-796,5668,-32768,9029
-4776,13492,-8532,2422,32767,-7320
10160,17948,5392,-5434,-16893,-3183
-6192,9256,-16444,-988,12495,1629
6456,18424,4728,-705,5904,-4293
-3828,18292,-8344,-1707,-23706,13716
-3184,12944,-4204,-463,21354,-6682
748,16556,748,4004,-9013,3004
-4032,13652,-19356,13180,-37,12327
4980,14352,796,2788,18290,-5375
6396,9376,-14528,5300,-7640,7354
-2020,6084,-12260,-445,-1468,-2047
10492,14052,-11116,3054,2737,-5959
2392,10568,-7016,-4634,-5704,10619
2064,14132,-13744,-3804,4237,-19524
4788,13008,-9348,2752,-13902,6337
-3964,7144,-8832,-11581,21699,-21093
476,14620,-10436,6602,-32768,16173
-1512,11404,-6344,1063,22695,-15036
6268,16400,-3680,5678,-16014,7490
-11872,4080,-11832,-3884,14945,-11009
7368,15324,-8364,395,-197,-2422
-21172,8044,-12292,-6295,-3662,2381
-312,15788,-4288,-12477,13272,-5205
-5540,17740,-9276,5523,-21622,10248
1076,15892,-2704,-3294,15092,-6155
1368,16436,-4700,6786,-5750,5135
-10316,4628,-8412,-11170,19699,-17748
7764,17944,4888,-11605,4098,-6971
-13764,10244,-8388,-3183,7740,1773
-1484,18232,-2320,-4904,7168,2935
-9512,17044,-6688,2741,-24608,12046
-292,16564,-2296,29,14568,-11316
-220,17308,-1396,6625,-15538,3665
-5496,11936,-5408,-4178,19733,-5312
4416,16324,-2464,-7237,11668,-1491
-8832,17364,-11844,7,-19933,12495
-240,15936,-3372,1270,5788,-5736
-436,16196,-2416,8571,-20495,1718
-6720,10292,-4940,-3145,13866,557
-1484,17848,-6464,-4045,9542,-4461
-304,16560,-2808,7590,-30005,8510
-1064,17316,2256,-1570,6583,-5200
-4100,15908,-1768,-1260,16509,-2756
580,17660,-5112,1075,-24695,8795
-3108,16572,-3304,-2624,15830,-4582
3872,18884,4968,-975,4621,-1420
-10252,8928,-12196,-1664,2071,2202
-2380,15284,-2188,-5393,8475,-4330
-5348,16956,-9180,4094,-28161,10880
-2848,14200,-2316,1019,15927,-6453
136,18064,-108,7643,-19455,2339
-3648,14848,-4392,-2563,21964,-2155
3512,17736,-2704,-780,-6517,-1368
-6724,11124,-7296,-508,1343,3473
-2176,16144,-4196,-5866,11520,-4329
632,16228,-3772,4996,-19068,3398
-3004,13848,-3816,-4090,12978,-1505
1936,18756,236,-3505,-1136,-3809
-6804,11240,-6592,2486,-119,1776
-936,15564,-5396,69,10279,-4899
-2100,18720,-9584,3610,-23804,4088
-3732,13436,-3652,-108,16040,-3075
2852,17332,-952,-4958,-4256,-2782
-6916,10816,-10756,637,7650,-2613
2960,16280,3768,-3613,13957,-2635
-6188,17448,-11648,2845,-22962,14032
-384,14524,-7088,-754,16068,-6555
4528,17168,1716,3062,-13179,1888
-5584,12700,-8340,-4206,8047,1943
-1100,17992,-4108,3085,12079,-3889
-2092,18612,-8080,-1768,-25620,7156
-2184,13260,-3248,194,10733,-5222
-2992,16992,-5608,5436,20575,-2428
-656,17040,-868,911,-25554,7143
-2084,11348,-9008,-1699,10408,-1162
6184,20168,-1760,11623,27265,-5708
-2296,18036,-4644,5997,-32768,4564
-28,14224,-7404,2417,22130,-10257
1456,17700,-6532,7052,-32768,4085
-3780,10260,-6496,-40,16177,-5658
7952,19504,3076,-6890,-3087,3390
-8776,8092,-12428,-5065,13041,2680
15824,17808,2800,2620,11222,-4830
-3116,18804,-12120,1156,-15116,8313
-320,15088,-6116,3686,13600,-9811
1712,16688,-4344,2164,-22404,5934
-3456,13652,-5420,-1548,15641,-8639
4592,19996,684,-2917,-290,1797
-7468,9820,-8896,1064,-4985,5387
1520,15752,-7540,-1655,8540,-5472
-752,14676,-3048,8430,-32768,5227
-2772,11256,-3152,-1492,15350,-4960
680,18116,6708,-7192,22800,-4578
-8476,13472,-17072,1309,-6132,8665
-272,15844,-6596,581,11589,-5997
4456,18836,1304,-1157,-14421,3577
-5884,11080,-11360,-3532,10119,5430
7884,20520,-8056,8446,9463,2045
1016,14900,816,7968,-32768,14209
-3920,11656,-4000,-8220,23223,-19570
1508,16968,11360,-8312,18420,-1354
-8800,12300,-13576,372,-9802,6067
1564,18592,-9888,4552,10277,-7651
2064,14628,6192,14098,-31977,8855
-2516,11836,-4340,-4634,15385,-2556
7556,19200,-488,-3518,11240,-6635
-4160,19288,-7872,1873,-23398,9537
1420,16060,-8548,1227,16427,-7576
5732,14708,3752,-269,3774,-2123
-10876,13324,-11728,-3641,-7845,3338
-1348,18388,-5620,-138,11843,-2625
2240,16620,1812,10701,-32572,6083
-5756,11700,-5600,-4009,25965,-5087
6416,19040,-6148,52,7097,212
-13916,9048,-12948,2721,-14928,905
-1936,17160,-6312,-5356,9353,-4270
-164,16060,-2760,5682,-32250,12176
3060,17120,-3636,402,15901,-5546
1736,17648,-2652,4465,-23231,8165
-864,16988,-5948,-3995,21237,-5478
3300,16728,-88,2257,-14547,4610
-1872,16172,-7708,-4412,23475,-6502
4472,18220,2408,-528,-504,1900
-11188,4396,-13480,-3731,2029,-2726
-8,16732,-9176,-12318,5677,-5117
-4168,17696,-5196,2914,-32070,12439
-3556,15812,-108,881,19786,-7689
4328,18576,-828,2309,-11859,7725
-6744,9472,-12640,-1179,19093,-6488
1928,15880,-4120,-3653,16810,-7410
-11964,14932,-10524,6610,-30151,9522
-1384,14176,984,-5676,13194,-4201
-544,15988,-2548,2889,-24006,12851
-4948,14912,-6624,-3830,19308,-2922
4584,17132,404,-1717,1627,2304
-6808,15584,-7524,208,-12800,6355
2236,16104,-3124,4760,-55,1358
4280,16376,1240,2719,-10649,2321
-552,10484,-14416,-2191,3421,-5395
5208,18404,-12880,7499,14428,2025
-3860,13588,-2060,6576,-32768,11610
-3376,12504,-7160,-10992,24073,-12303
1336,13880,-8032,-2563,10045,2830
-1904,15712,-5636,7473,-32768,5861
-5160,11604,-3616,-3647,32767,-12279
8460,16660,-2812,3349,1039,-410
-9548,14652,-6832,-975,-19037,14420
4152,21896,-4296,-5839,16602,-12493
64,15152,-312,-1580,-17431,517
-7884,7200,-11364,-5952,20612,3541
4068,20056,-8840,-11007,-2655,2360
-5024,16332,-7508,4582,-32768,5238
-4708,12064,1076,850,19880,-1790
-2684,16096,4348,-15726,32767,-15017
-7656,18952,-7380,7584,-32768,5017
-3716,13412,2460,-6269,14009,-1671
-872,15988,6544,8150,2113,1180
-10876,11692,-14944,-7230,-1160,-148
1632,19292,-6764,-1578,-1984,-2466
2448,16700,1112,8581,-23180,6524
-4648,12400,-6088,-5654,23047,-1748
-1672,18372,-1588,-9749,18031,-10756
-4892,15748,-5988,5097,-27227,7445
-2604,13092,-1128,-2955,17243,-1805
6800,20692,-960,4041,-13717,5155
-6292,13260,-5252,2503,-11863,7544
-1136,18024,-3356,-1375,16976,-12673
-2696,16332,1936,-3772,-30163,10879
-5500,11608,-7644,-5208,7237,2820
1528,20096,1596,4281,2626,-5893
-3880,17308,-3324,3214,-32360,2490
-7024,12136,3728,1007,28748,-2130
9452,18352,-1624,-9393,7754,-153
-4580,16088,-13844,10042,-27627,3449
-1960,15024,-1344,-3389,11304,-9214
4004,17460,1876,5118,-24826,2431
-4884,13296,-10064,1364,24767,-94
2368,13264,-4952,4627,2164,11071
-12812,8676,-7944,-2036,-32733,11054
6568,19772,-18592,-4235,-5065,7005
-1164,15760,-2828,7525,-32768,8606
-2856,13796,-2392,-9056,19508,-10628
6728,19992,2156,1704,10405,3054
-6656,15720,-12756,1649,-24857,7903
-1016,12624,340,-5890,14690,-12160
4132,20400,4052,12324,-11265,12928
-4268,15276,-11020,637,-15478,5949
2136,17012,-4168,-2281,7334,-1480
648,14096,6736,-3845,981,441
-4152,13516,-8724,2094,3858,2653
3956,19024,-11140,1385,13328,-7864
2832,16384,4724,-4511,-13732,-2887
-3672,14084,-6488,-5778,22982,-2158
5604,19676,-4140,1898,15878,4099
-8916,14756,-5132,1139,-32768,13731
-7144,17352,2988,-1243,32767,-10559
1152,17316,2372,6105,22195,352
-7636,12588,-3440,7140,-32768,-81
-1292,14284,992,-3576,29994,-5881
876,17640,-2968,325,-20572,4854
-5968,12396,-5964,105,632,2986
-6548,12208,-6852,5650,26680,-1496
480,18464,88,2864,-22646,4209
-2952,17432,-2816,-4684,18151,390
1176,14832,1976,355,16165,-10
252,19928,4448,510,-24085,6131
868,14828,-2372,2130,11676,339
-4,17220,-1976,2302,8986,-3802
5624,18700,2168,5078,-7043,-2786
-3056,14784,-296,784,15343,687
892,17400,-3604,-464,14472,-4397
4252,17888,3596,6818,-12952,9621
-1268,14244,-4132,1267,7123,-1939
1080,15636,-3660,-2898,4240,-455
4116,15884,92,3795,-9749,1049
372,16100,-3324,-2274,6369,193
-1720,14348,-932,-6239,13434,-7891
-148,15556,-2016,1164,-5312,2070
-2184,14628,-4652,-944,5548,-1629
-628,18084,-380,-1794,7378,-4661
-2396,15168,-1544,4705,-19193,5819
-1632,14176,-3460,-501,5294,-885
2216,17860,-3360,-6242,729,-3668
-3848,16108,-6040,3881,-11750,2864
-1924,15128,-3156,-1576,7944,-4473
-360,14480,2328,-1141,-156,-174
-3156,14976,-8740,2098,-4225,-1094
-2828,14508,-6656,1470,5153,42
5948,19084,1080,-2755,-16262,2124
-6528,11728,-8008,-292,14826,578
-2232,16852,-5536,-2847,11605,-3475
-1100,14360,-1592,244,-19578,9088
-3124,13256,-8972,-3397,7031,2023
-760,17748,-3812,423,22480,-6326
3432,16644,-536,-398,-27835,14169
-5072,11512,-5928,-10989,10323,-2175
1596,19196,-3872,4006,12342,2631
5568,17424,-4552,5549,-32768,14570
-24,15640,432,-7076,-12130,6247
2804,11928,-10608,-12743,4265,-1385
628,20336,7836,12032,24860,-6837
424,15544,-980,5076,-32768,8572
-3256,15192,-48,-11019,15876,-7812
6380,24428,-10276,6161,13928,1230
5552,15116,2432,6510,-32768,4575
-2096,13520,-3860,-12628,5600,2384
4268,17336,-5612,988,5814,-3341
5180,13852,16240,-7010,8188,-9907
3084,18248,-8892,7846,-22977,13471
-128,11688,1452,-6574,-9938,-925
2256,19052,-596,-8476,20757,-5374
-9408,10208,4780,-3506,14064,-2149
-2128,19200,7776,11104,-32768,13874
-276,18196,432,-5917,-19361,10365
3936,18040,892,-5236,643,-4610
3708,18848,-3280,8512,15741,2657
6516,16696,-160,7080,-32768,2362
-2344,14028,-2836,-1064,2738,1497
